Timestamp,TimeIntervalSince1970,GyroX,GyroY,GyroZ,AccX,AccY,AccZ
2020-08-30 17:06:09.0340,1598799969.033690,-0.084342018,0.095285557,-0.434797585,-0.149871767,-0.333206058,-0.963027954
2020-08-30 17:06:09.0350,1598799969.035040,-0.141916111,0.21420902,-0.341331542,-0.125045747,-0.361556947,-0.949691772
2020-08-30 17:06:09.0890,1598799969.089240,-0.087053113,0.292131841,-0.258415371,-0.087875336,-0.329574525,-0.957717896
2020-08-30 17:06:09.0890,1598799969.089280,-0.070835531,0.334835231,-0.157734171,-0.050064087,-0.330612212,-0.962234497
2020-08-30 17:06:09.1170,1598799969.116530,-0.021101797,0.470319539,-0.069188386,-0.073577881,-0.336013824,-0.966262817
2020-08-30 17:06:09.1460,1598799969.146220,-0.003427196,0.606062233,0.038910788,-0.057907134,-0.348068327,-0.986312866
2020-08-30 17:06:09.1760,1598799969.176390,0.070550889,0.725030363,0.090968624,-0.03715517,-0.293289334,-0.984741151
2020-08-30 17:06:09.2060,1598799969.206020,0.0387895,0.804689288,0.117357671,-0.007400546,-0.292541832,-1.010909975
2020-08-30 17:06:09.2360,1598799969.235900,-0.071538076,0.89966166,0.17763494,-0.009277351,-0.263794154,-0.990768373
2020-08-30 17:06:09.2660,1598799969.265820,-0.225865602,0.916041255,0.298171133,0.036300668,-0.2380068,-0.941482484
2020-08-30 17:06:09.2960,1598799969.295710,-0.3413243,0.843348682,0.453519434,0.093246488,-0.209228635,-0.916854858
2020-08-30 17:06:09.3260,1598799969.325750,-0.341169298,0.764678657,0.583404779,0.123504661,-0.160446227,-0.933227479
2020-08-30 17:06:09.3560,1598799969.355610,-0.534060657,0.712319314,0.734502077,0.114990249,-0.152114809,-0.931610107
2020-08-30 17:06:09.3860,1598799969.385620,-1.01817596,0.738066971,0.895784378,0.10443119,-0.143524215,-0.920303345
2020-08-30 17:06:09.4160,1598799969.415540,-1.270149112,0.695123136,1.037400961,0.132324278,-0.137329176,-0.973297119
2020-08-30 17:06:09.4450,1598799969.445450,-1.073625684,0.580000222,1.229060769,0.138519339,-0.034378096,-0.997375488
2020-08-30 17:06:09.4750,1598799969.475450,-0.807482123,0.486675352,1.299966097,0.118743993,-0.038208097,-1.014373779
2020-08-30 17:06:09.5060,1598799969.505630,-0.633532703,0.532693446,1.255299926,0.070083722,-0.066116422,-1.051956177
2020-08-30 17:06:09.5350,1598799969.535390,-0.360255361,0.609754205,1.214234829,0.057190038,-0.098358199,-1.080596924
2020-08-30 17:06:09.5670,1598799969.566700,-0.271354258,0.587571144,1.174095631,0.068557769,-0.11073304,-1.096206665
2020-08-30 17:06:09.5950,1598799969.595420,-0.433791906,0.612890065,1.093241572,0.063446105,-0.13293457,-1.069137573
2020-08-30 17:06:09.6250,1598799969.625150,-0.301495105,0.586141229,1.02415967,0.065765455,-0.127059937,-1.006988525
2020-08-30 17:06:09.6550,1598799969.655220,-0.129845858,0.475209594,0.929231584,0.08593756,-0.076965325,-1.006652832
2020-08-30 17:06:09.6860,1598799969.685550,-0.22614257,0.507107198,0.883443415,0.088760391,-0.051361054,-0.992950439
2020-08-30 17:06:09.7150,1598799969.715080,-0.381702065,0.398159027,0.815075696,0.141723648,-0.064529389,-1.025909424
2020-08-30 17:06:09.7450,1598799969.745130,-0.622672319,0.346027493,0.694151998,0.173690811,-0.023544282,-0.979202271
2020-08-30 17:06:09.7750,1598799969.774950,-0.149572954,0.227935165,0.442881554,0.191207901,0.075561561,-0.990036011
2020-08-30 17:06:09.8050,1598799969.805240,-0.269043446,0.138613552,0.398715645,0.177108765,-0.059890717,-0.928466797
2020-08-30 17:06:09.8350,1598799969.835490,-0.671271801,0.01533356,0.305317223,0.163070694,-0.026473977,-0.911331177
2020-08-30 17:06:09.8650,1598799969.865390,-1.132796764,-0.195095137,0.397852451,0.159729064,-0.05767821,-0.898635864
2020-08-30 17:06:09.8950,1598799969.895030,-0.565239906,-0.42134127,0.369000494,0.140426695,0.072601341,-0.87538147
2020-08-30 17:06:09.9540,1598799969.953550,-0.901636064,-0.501211345,0.591164529,0.034072891,0.085937512,-0.837371826
2020-08-30 17:06:09.9550,1598799969.955460,0.079688728,-0.723233521,0.956780076,0.064483702,0.221359277,-0.955932617
2020-08-30 17:06:09.9840,1598799969.984360,2.704444408,-0.645228684,0.974888325,-0.08386226,0.507736214,-1.013534546
2020-08-30 17:06:10.0150,1598799970.014650,2.088632107,-0.664110243,0.905398726,-0.133529611,-0.487701423,-0.8881073
2020-08-30 17:06:10.0450,1598799970.044600,2.268063307,-0.766460598,0.640818596,-0.212814279,-0.571472242,-0.740066528
2020-08-30 17:06:10.0740,1598799970.074330,1.30785501,-0.695170283,0.518590271,-0.247497514,-0.937408522,-0.860992432
2020-08-30 17:06:10.1040,1598799970.104360,1.529937863,-0.446391732,0.308744431,-0.247634865,-0.437652618,-1.073348999
2020-08-30 17:06:10.1340,1598799970.134140,0.388310462,-0.253721505,0.494452327,-0.280181834,-0.637939483,-1.07270813
2020-08-30 17:06:10.1640,1598799970.164110,-0.179005414,-0.126383051,0.824927926,-0.194961505,-0.427902162,-0.995178223
2020-08-30 17:06:10.1940,1598799970.194050,0.202798143,-0.268806159,0.707605183,-0.174163775,-0.240829438,-0.791183472
2020-08-30 17:06:10.2240,1598799970.223970,0.481215119,-0.641005814,0.786017954,-0.166427576,-0.337173402,-0.733703673
2020-08-30 17:06:10.2540,1598799970.254010,1.349529743,-0.49164173,0.819510579,-0.32669065,-0.533416718,-0.910980225
2020-08-30 17:06:10.2840,1598799970.283890,-0.993781924,-0.452836871,0.556441903,-0.222671468,-0.902786225,-0.884887695
2020-08-30 17:06:10.3140,1598799970.313830,-0.298022091,-0.448368013,0.520537555,-0.195556618,-0.373168975,-0.858825684
2020-08-30 17:06:10.3450,1598799970.344760,0.056746129,-0.352033138,0.391967595,-0.189758278,-0.405105621,-0.897750854
2020-08-30 17:06:10.3740,1598799970.374290,0.105486505,-0.088586316,0.192382991,-0.27261351,-0.505951017,-0.932174683
2020-08-30 17:06:10.4040,1598799970.404100,-0.288057864,0.008045821,-0.074763864,-0.232437164,-0.599823177,-0.967330933
2020-08-30 17:06:10.4350,1598799970.434910,-0.067378484,0.131716236,-0.190091267,-0.292144805,-0.458725154,-0.916290283
2020-08-30 17:06:10.4640,1598799970.463830,-0.466513097,0.166429386,-0.239320725,-0.237976097,-0.538650721,-0.932922304
2020-08-30 17:06:10.4940,1598799970.493980,-0.665378213,0.195306957,-0.283777982,-0.245437644,-0.389908046,-0.952133119
2020-08-30 17:06:10.5240,1598799970.523600,-0.629900396,0.187851936,-0.239444092,-0.232788093,-0.345260799,-0.970581055
2020-08-30 17:06:10.5540,1598799970.553610,-0.404476881,0.141279936,-0.263022006,-0.193374664,-0.271576107,-0.992248535
2020-08-30 17:06:10.5830,1598799970.583480,-0.208444268,0.063593857,-0.369710803,-0.139907867,-0.252136469,-0.959854066
2020-08-30 17:06:10.6140,1598799970.613560,-0.091595404,0.037214711,-0.388770491,-0.161499046,-0.274536341,-0.989883423
2020-08-30 17:06:10.6430,1598799970.643250,0.05848597,0.090304255,-0.326565355,-0.177124038,-0.28312698,-1.000350952
2020-08-30 17:06:10.6740,1598799970.673990,0.142365947,0.145673811,-0.329146028,-0.159820542,-0.287445158,-0.983444214
2020-08-30 17:06:10.7030,1598799970.703320,0.27265045,0.159824029,-0.411196649,-0.14331051,-0.301208496,-0.929733276
2020-08-30 17:06:10.7330,1598799970.733080,0.355989277,0.124328308,-0.530970752,-0.142242402,-0.272186279,-0.951065123
2020-08-30 17:06:10.7630,1598799970.763070,0.248965889,0.093868673,-0.591540635,-0.176040597,-0.250823885,-0.933990479
2020-08-30 17:06:10.7930,1598799970.792830,0.253257841,0.085819393,-0.60241276,-0.170715287,-0.217330873,-0.932830811
2020-08-30 17:06:10.8230,1598799970.822910,0.319620371,-0.02564339,-0.627883732,-0.135971017,-0.222274661,-0.928161681
2020-08-30 17:06:10.8530,1598799970.852570,0.247374386,-0.074272536,-0.684482455,-0.127609201,-0.2624816,-0.970474243
2020-08-30 17:06:10.8830,1598799970.882530,0.083724484,-0.14196822,-0.719219148,-0.093017519,-0.338500887,-0.963317931
2020-08-30 17:06:10.9130,1598799970.912530,0.308713913,-0.13742137,-0.665175617,-0.091690011,-0.307037264,-0.979721069
2020-08-30 17:06:10.9430,1598799970.942530,0.220922813,-0.137837887,-0.69212079,-0.071304284,-0.358444184,-0.997970641
2020-08-30 17:06:10.9720,1598799970.972440,0.325668126,-0.054469138,-0.639235973,-0.080413774,-0.306167454,-0.970230103
2020-08-30 17:06:11.0030,1598799971.002690,0.447335184,-0.012669003,-0.602963984,-0.04432673,-0.272659212,-0.976242065
2020-08-30 17:06:11.0330,1598799971.032980,0.354492605,0.020309633,-0.601241112,-0.025970396,-0.34036234,-0.99810791
2020-08-30 17:06:11.0630,1598799971.062630,0.027496632,0.032875091,-0.547793806,-0.011840757,-0.395232946,-0.92767334
2020-08-30 17:06:11.0920,1598799971.092460,0.080419503,-0.031158842,-0.516273618,0.021942198,-0.282211035,-0.934204161
2020-08-30 17:06:11.1220,1598799971.122400,0.033147328,-0.081772923,-0.510921955,0.005935743,-0.337096781,-0.91305548
2020-08-30 17:06:11.1520,1598799971.152470,-0.212975368,-0.10998144,-0.552798748,0.005081255,-0.402770549,-0.905166745
2020-08-30 17:06:11.1820,1598799971.182240,-0.335778773,-0.117000334,-0.647708774,0.006195124,-0.367629647,-0.948669493
2020-08-30 17:06:11.2120,1598799971.212040,-0.292420387,-0.070154399,-0.730492234,0.011047412,-0.388946325,-0.938461363
2020-08-30 17:06:11.2420,1598799971.242320,-0.137355715,-0.059058029,-0.786575973,0.013320956,-0.368514895,-0.926147461
2020-08-30 17:06:11.2720,1598799971.272140,-0.099017099,-0.083479345,-0.842428088,0.041580227,-0.379211366,-0.927764952
2020-08-30 17:06:11.3030,1598799971.303450,-0.092737898,-0.16584067,-0.860269904,0.054885895,-0.331710905,-0.953231812
2020-08-30 17:06:11.3320,1598799971.332260,-0.191386193,-0.209861025,-0.845479369,0.048522976,-0.335998714,-0.963928223
2020-08-30 17:06:11.3620,1598799971.362040,-0.302008837,-0.222715214,-0.854771614,0.051986722,-0.325592369,-1.004943788
2020-08-30 17:06:11.3920,1598799971.392480,-0.094852448,-0.27423653,-0.876164317,0.083282502,-0.326401234,-1.00668329
2020-08-30 17:06:11.4220,1598799971.422270,0.287779063,-0.358556569,-0.921687126,0.08163456,-0.295517534,-0.993057132
2020-08-30 17:06:11.4520,1598799971.451770,0.132039815,-0.353517562,-1.063596368,0.046768227,-0.352005631,-1.022277713
2020-08-30 17:06:11.4820,1598799971.481810,-0.547489405,-0.326503754,-1.14746356,0.06280521,-0.401596576,-1.061691165
2020-08-30 17:06:11.5120,1598799971.511850,-0.664360881,-0.275564879,-0.932294667,-0.008651692,-0.340012074,-1.044067323
2020-08-30 17:06:11.5420,1598799971.541860,-0.656716049,-0.280381769,-0.796206236,0.030044591,-0.337692708,-1.031722963
2020-08-30 17:06:11.5720,1598799971.571590,-0.327049196,-0.311713904,-0.685153425,0.042999301,-0.390945762,-1.038803041
2020-08-30 17:06:11.6040,1598799971.603880,0.380247742,-0.291275471,-0.70866251,0.044754055,-0.353897482,-1.009384096
2020-08-30 17:06:11.6320,1598799971.632160,0.940380573,-0.272057921,-0.754264057,0.010803242,-0.444702506,-0.928832948
2020-08-30 17:06:11.6620,1598799971.661640,1.51651454,-0.324788779,-0.800061643,-0.020996075,-0.38882488,-0.872024477
2020-08-30 17:06:11.6920,1598799971.691820,1.591723442,-0.34637484,-0.769848764,-0.047012317,-0.486420214,-0.991989017
2020-08-30 17:06:11.7210,1598799971.721290,1.287294865,-0.010164743,-0.748027444,-0.124725324,-0.624603927,-1.004073977
2020-08-30 17:06:11.7510,1598799971.751320,1.341700315,0.338738382,-0.83148849,-0.224060005,-0.437500745,-0.933379948
2020-08-30 17:06:11.7810,1598799971.781070,1.105489135,0.615826011,-0.832696378,-0.173293978,-0.506562054,-0.987243474
2020-08-30 17:06:11.8110,1598799971.811250,0.87411207,0.828199506,-0.793310583,-0.168563686,-0.55625999,-0.828613043
2020-08-30 17:06:11.8410,1598799971.841040,0.944838703,0.832032263,-0.698544025,-0.090698026,-0.492386758,-0.780090094
2020-08-30 17:06:11.8740,1598799971.873660,0.848894894,0.822317958,-0.696627378,-0.053039283,-0.561890602,-0.750228584
2020-08-30 17:06:11.9010,1598799971.900970,0.485112399,0.718322635,-0.589709878,0.010589913,-0.567688942,-0.664733589
2020-08-30 17:06:11.9310,1598799971.930970,0.752983034,0.609378457,-0.480916888,0.029968649,-0.47017014,-0.658385873
2020-08-30 17:06:11.9620,1598799971.961590,0.598344445,0.796680391,-0.519500375,0.073898792,-0.650620759,-0.742187023
2020-08-30 17:06:11.9910,1598799971.990780,0.258295745,1.04924047,-0.53707099,0.042587787,-0.662903965,-0.769134104
2020-08-30 17:06:12.0240,1598799972.023920,0.614083707,1.170890927,-0.397769451,0.108795673,-0.613923073,-0.738967478
2020-08-30 17:06:12.0510,1598799972.050990,1.116801381,1.001780033,-0.358116627,0.163910449,-0.495774329,-0.639358044
2020-08-30 17:06:12.0810,1598799972.080720,0.652534962,0.908190012,-0.498907775,0.195877612,-0.62844938,-0.582839549
2020-08-30 17:06:12.1100,1598799972.110250,0.24085924,0.878385782,-0.64775455,0.250137985,-0.69081229,-0.772201002
2020-08-30 17:06:12.1410,1598799972.140500,0.77936399,0.718668103,-0.550866306,0.310257703,-0.458939731,-0.783995986
2020-08-30 17:06:12.1710,1598799972.170840,0.686186671,0.536900818,-0.448957235,0.413330823,-0.630234897,-0.745971143
2020-08-30 17:06:12.2000,1598799972.200340,0.336001456,0.376307368,-0.406770736,0.547608197,-0.703049898,-0.705748916
2020-08-30 17:06:12.2300,1598799972.230320,0.435459077,0.05854366,-0.388295799,0.633057415,-0.562363744,-0.435866714
2020-08-30 17:06:12.2610,1598799972.260670,0.368065387,-0.294722259,-0.326863319,0.70306471,-0.498642981,-0.221785903
2020-08-30 17:06:12.2900,1598799972.290150,0.249541938,-0.548044086,-0.203082934,0.721253335,-0.442094147,-0.191985428
2020-08-30 17:06:12.3210,1598799972.321030,-0.296532303,-0.387821347,-0.265716463,0.665833324,-0.639588475,-0.323912978
2020-08-30 17:06:12.3510,1598799972.350720,0.030916397,-0.028495414,-0.404385269,0.620697767,-0.512803137,-0.485579848
2020-08-30 17:06:12.3800,1598799972.380030,0.27899465,0.074420355,-0.442831904,0.630921185,-0.443650305,-0.482009292
2020-08-30 17:06:12.4100,1598799972.410060,-0.029887032,0.077542424,-0.341605783,0.645279646,-0.519028664,-0.538695753
2020-08-30 17:06:12.4410,1598799972.440790,-0.342273176,0.020167243,-0.177223414,0.664124191,-0.58020103,-0.607039928
2020-08-30 17:06:12.4700,1598799972.469770,-0.324862748,0.019117735,-0.081527874,0.649796039,-0.633698165,-0.667068124
2020-08-30 17:06:12.5000,1598799972.499630,0.063282058,0.113062911,-0.069438167,0.612930864,-0.630249619,-0.724975169
2020-08-30 17:06:12.5300,1598799972.529860,0.204996049,0.185280532,-0.090419792,0.573670059,-0.649414778,-0.712127268
2020-08-30 17:06:12.5600,1598799972.559850,0.042008195,0.210341394,-0.081274338,0.552292645,-0.664185464,-0.642196119
2020-08-30 17:06:12.5890,1598799972.589400,0.089813799,0.16165185,-0.05736766,0.543625653,-0.58964628,-0.582473159
2020-08-30 17:06:12.6200,1598799972.619500,0.13871263,0.157885239,-0.053971443,0.510666668,-0.597397745,-0.575393081
2020-08-30 17:06:12.6500,1598799972.649540,0.100518644,0.122674584,-0.048597619,0.509858012,-0.612564981,-0.557479262
2020-08-30 17:06:12.6790,1598799972.679340,-0.108535506,0.106348865,-0.047394484,0.50080955,-0.64268589,-0.574675858
2020-08-30 17:06:12.7090,1598799972.709110,-0.135104805,0.068643205,-0.016026059,0.485657632,-0.614426613,-0.591994584
2020-08-30 17:06:12.7390,1598799972.739110,0.075524874,0.050888442,0.020766919,0.483429849,-0.584382176,-0.583861589
2020-08-30 17:06:12.7690,1598799972.769000,0.094879404,0.081304811,0.01112561,0.486146092,-0.649186432,-0.608855367
2020-08-30 17:06:12.7990,1598799972.798920,0.094308153,0.106307365,-0.00444749,0.480149627,-0.643159449,-0.617064476
2020-08-30 17:06:12.8290,1598799972.829330,-0.003568344,0.096976623,0.006735617,0.486817658,-0.641572416,-0.574370444
2020-08-30 17:06:12.8590,1598799972.858990,-0.018168058,0.03618611,0.026590567,0.494156957,-0.626603425,-0.555602252
2020-08-30 17:06:12.8890,1598799972.888780,-0.049428508,-0.004109692,0.046246618,0.507600009,-0.650422454,-0.565047383
2020-08-30 17:06:12.9190,1598799972.919030,-0.156913966,-0.022099476,0.030753318,0.506806552,-0.687852263,-0.560027182
2020-08-30 17:06:12.9490,1598799972.948640,-0.107703798,-0.024359126,0.017664127,0.502991796,-0.651841462,-0.567671895
2020-08-30 17:06:12.9790,1598799972.978970,0.033253852,0.007181978,-0.004015621,0.496903539,-0.62024051,-0.589186788
2020-08-30 17:06:13.0090,1598799973.009160,0.008373537,0.057692647,-0.019877674,0.502289951,-0.635697722,-0.595931172
2020-08-30 17:06:13.0390,1598799973.039010,-0.013938427,0.067355171,-0.012413766,0.524033666,-0.627457917,-0.599257588
2020-08-30 17:06:13.0680,1598799973.068350,-0.098309502,0.096099198,-0.028369106,0.522828221,-0.649201691,-0.576964557
2020-08-30 17:06:13.0980,1598799973.098280,0.027457219,0.05711465,-0.027531143,0.543274879,-0.619568944,-0.560363054
2020-08-30 17:06:13.1280,1598799973.128400,0.024487793,0.028622868,-0.013459894,0.540741861,-0.634049475,-0.564299881
2020-08-30 17:06:13.1580,1598799973.158130,-0.065860748,0.034691323,0.00406131,0.540100932,-0.648056984,-0.564467728
2020-08-30 17:06:13.1880,1598799973.188050,0.001624288,0.028651364,0.026864396,0.550171733,-0.605500162,-0.571593583
2020-08-30 17:06:13.2180,1598799973.218230,-0.035874616,0.054162048,0.02792643,0.542679608,-0.619294047,-0.571593642
2020-08-30 17:06:13.2480,1598799973.248060,-0.047006629,0.049801521,0.037096322,0.550385118,-0.60540843,-0.555312693
2020-08-30 17:06:13.2780,1598799973.277850,-0.103040606,0.043744605,0.045684103,0.553696215,-0.621124864,-0.545592844
2020-08-30 17:06:13.3080,1598799973.307810,0.038286697,0.04541019,0.047187399,0.552094042,-0.58047545,-0.544982493
2020-08-30 17:06:13.3380,1598799973.338100,0.03236356,0.032735363,0.050415777,0.551925957,-0.602157831,-0.552108586
2020-08-30 17:06:13.3690,1598799973.368850,-0.114473291,0.01048381,0.049659878,0.545303285,-0.61090076,-0.538345337
2020-08-30 17:06:13.3980,1598799973.397750,-0.231432408,-0.018503632,0.053631715,0.547928154,-0.621506035,-0.538970709
2020-08-30 17:06:13.4280,1598799973.427910,-0.032904394,-0.022872239,0.05008566,0.54345727,-0.591278315,-0.539871097
2020-08-30 17:06:13.4580,1598799973.457770,0.156938508,-0.033135395,0.040575035,0.549759209,-0.583359182,-0.53971839
2020-08-30 17:06:13.4870,1598799973.487470,0.005551651,-0.042174742,0.054689843,0.559280872,-0.623138905,-0.540038705
2020-08-30 17:06:13.5170,1598799973.517460,-0.34312883,-0.033601981,0.061067794,0.560638905,-0.662186146,-0.566833138
2020-08-30 17:06:13.5470,1598799973.547440,-0.159229055,-0.030832116,0.078132682,0.555756092,-0.582794666,-0.538192391
2020-08-30 17:06:13.5770,1598799973.577310,0.133505344,-0.072876148,0.105646826,0.569962263,-0.57151866,-0.537307262
2020-08-30 17:06:13.6080,1598799973.607650,-0.073255815,-0.058812395,0.102120131,0.559906781,-0.666275918,-0.574828506
2020-08-30 17:06:13.6370,1598799973.637400,-0.150119707,-0.044745535,0.108731911,0.556305766,-0.630997658,-0.572615921
2020-08-30 17:06:13.6680,1598799973.667650,-0.017516384,-0.073214419,0.134172648,0.549439311,-0.557602882,-0.558455765
2020-08-30 17:06:13.6970,1598799973.697130,-0.25185138,-0.029482825,0.123998389,0.529145241,-0.650483251,-0.602874041
2020-08-30 17:06:13.7270,1598799973.727370,-0.232455596,-0.016299557,0.12167272,0.513077676,-0.610459387,-0.597197831
2020-08-30 17:06:13.7570,1598799973.756910,0.013874295,-0.039338917,0.137951761,0.500718176,-0.590073824,-0.594435871
2020-08-30 17:06:13.7870,1598799973.786850,-0.021440819,-0.042825572,0.127421901,0.497132361,-0.656754732,-0.614318073
2020-08-30 17:06:13.8170,1598799973.817070,-0.182940498,-0.031179037,0.100701228,0.486619115,-0.684403658,-0.634459674
2020-08-30 17:06:13.8470,1598799973.847480,-0.152338922,-0.036686897,0.077099726,0.483414769,-0.649384916,-0.626036763
2020-08-30 17:06:13.8770,1598799973.877010,0.078436777,-0.034924507,0.049852956,0.471879005,-0.605073154,-0.620620012
2020-08-30 17:06:13.9070,1598799973.906630,0.052678417,-0.028960358,0.013935435,0.469697207,-0.644059658,-0.621596396
2020-08-30 17:06:13.9370,1598799973.936610,-0.131182775,-0.029451089,-0.01491398,0.481934726,-0.662736416,-0.607665122
2020-08-30 17:06:13.9670,1598799973.966550,-0.086859241,-0.047571503,-0.036380805,0.483750641,-0.620637536,-0.583983421
2020-08-30 17:06:13.9970,1598799973.996810,-0.059174348,-0.054702073,-0.065668747,0.487931699,-0.602601767,-0.58842361
2020-08-30 17:06:14.0270,1598799974.026880,-0.041407868,-0.03343207,-0.065815285,0.484819025,-0.591112077,-0.610152006
2020-08-30 17:06:14.0570,1598799974.057330,-0.210705027,-0.006248432,-0.059061259,0.50213775,-0.618745685,-0.626402676
2020-08-30 17:06:14.0870,1598799974.086500,-0.140024722,-0.002720365,-0.027362414,0.497377068,-0.591951311,-0.634596646
2020-08-30 17:06:14.1160,1598799974.116360,0.033769708,0.002541732,-0.001292595,0.49118194,-0.592515826,-0.652357876
2020-08-30 17:06:14.1460,1598799974.146170,0.033405121,0.005479819,0.025584824,0.485688686,-0.625383198,-0.672789454
2020-08-30 17:06:14.1790,1598799974.179020,-0.136405766,0.0275327,0.04150195,0.486711115,-0.650651813,-0.672911465
2020-08-30 17:06:14.2060,1598799974.206100,-0.012466764,0.031297389,0.06876342,0.485459805,-0.596315205,-0.65382278
2020-08-30 17:06:14.2360,1598799974.236220,0.071196176,0.037681878,0.066312924,0.490235716,-0.612001181,-0.64285183
2020-08-30 17:06:14.2660,1598799974.265890,-0.00688904,0.043571547,0.056724027,0.501374513,-0.630219936,-0.627989888
2020-08-30 17:06:14.2960,1598799974.295790,-0.076784499,0.049019974,0.051491164,0.506608248,-0.624925137,-0.616911948
2020-08-30 17:06:14.3260,1598799974.325970,-0.024240598,0.045515694,0.056099612,0.501343906,-0.604066312,-0.623946309
2020-08-30 17:06:14.3580,1598799974.357850,0.016837064,0.055708632,0.043826982,0.484940529,-0.615098238,-0.623137712
2020-08-30 17:06:14.3860,1598799974.385910,-0.008483208,0.053818144,0.030145261,0.477524638,-0.617203712,-0.627486587
2020-08-30 17:06:14.4160,1598799974.415730,-0.128825605,0.04215017,0.032299854,0.472504526,-0.627457678,-0.632659256
2020-08-30 17:06:14.4460,1598799974.445620,-0.125859365,0.022278462,0.038338076,0.466874003,-0.607438147,-0.630690932
2020-08-30 17:06:14.4750,1598799974.475450,0.042261995,0.005794383,0.036287863,0.467514962,-0.584534705,-0.632643938
2020-08-30 17:06:14.5050,1598799974.505350,0.036256302,0.006992628,0.020580688,0.467301279,-0.618714392,-0.643126786
2020-08-30 17:06:14.5350,1598799974.535470,-0.058206286,0.00548297,0.002892733,0.471878827,-0.629319072,-0.64280647
2020-08-30 17:06:14.5660,1598799974.565700,-0.032581352,-0.003689756,-0.003368739,0.480148971,-0.609497786,-0.629409313
2020-08-30 17:06:14.5950,1598799974.595160,0.030539561,-0.009638857,-0.007111793,0.488144428,-0.609543383,-0.627654672
2020-08-30 17:06:14.6250,1598799974.625370,-7.70E-06,-0.003093784,-0.022093937,0.490280658,-0.632721543,-0.625350595
2020-08-30 17:06:14.6550,1598799974.655220,-0.04034926,-0.002199051,-0.031526476,0.500412345,-0.622970998,-0.616637945
2020-08-30 17:06:14.6850,1598799974.684810,0.046452481,-0.011552872,-0.025669383,0.498855978,-0.592789114,-0.613784492
2020-08-30 17:06:14.7150,1598799974.715020,0.034001403,-0.004177114,-0.024300653,0.497696191,-0.609375298,-0.627578557
2020-08-30 17:06:14.7450,1598799974.744670,-0.02705849,0.02285042,-0.028540365,0.495666713,-0.615249872,-0.629836857
2020-08-30 17:06:14.7750,1598799974.775010,-0.00610101,0.033017483,-0.029139312,0.503524929,-0.602035701,-0.62499994
2020-08-30 17:06:14.8050,1598799974.804760,0.039497636,0.024947707,-0.015778897,0.507003933,-0.586166501,-0.614013612
2020-08-30 17:06:14.8350,1598799974.834800,-0.019323073,0.023639828,-0.008659242,0.501571804,-0.60873431,-0.61428827
2020-08-30 17:06:14.8650,1598799974.864800,-0.039319947,0.012529872,0.005584504,0.50326547,-0.600082397,-0.619949341
2020-08-30 17:06:14.8950,1598799974.894880,-0.015366147,0.023130186,0.013935701,0.495300263,-0.607772708,-0.625274658
2020-08-30 17:06:14.9250,1598799974.924790,0.08167012,0.012087966,0.017947849,0.499343842,-0.587524354,-0.617218077
2020-08-30 17:06:14.9550,1598799974.954790,-0.004911643,0.014417699,0.015689602,0.497070283,-0.622619569,-0.616241515
2020-08-30 17:06:14.9850,1598799974.984680,-0.061035097,0.007494013,0.006382843,0.500915498,-0.613250613,-0.614776671
2020-08-30 17:06:15.0150,1598799975.015060,0.047888722,0.010360062,0.003911525,0.498596013,-0.597030461,-0.620483518
2020-08-30 17:06:15.0450,1598799975.044720,0.101239562,0.009395421,0.001124813,0.50353986,-0.606689215,-0.61817944
2020-08-30 17:06:15.0750,1598799975.074860,0.014107856,0.002393438,-0.00374257,0.504653633,-0.62351948,-0.613479853
2020-08-30 17:06:15.1040,1598799975.104160,-0.073103212,0.007327298,-0.012708634,0.501052558,-0.623153269,-0.612961054
2020-08-30 17:06:15.1340,1598799975.134150,-0.02774372,-0.00394786,-0.007260549,0.498427957,-0.59480232,-0.6194309
2020-08-30 17:06:15.1640,1598799975.164250,0.015417331,-0.003681011,0.00080122,0.494201392,-0.594512582,-0.624054193
2020-08-30 17:06:15.1940,1598799975.193960,0.015666604,-0.004740549,0.008982849,0.493636817,-0.602492929,-0.62838769
2020-08-30 17:06:15.2240,1598799975.224080,-0.002282037,0.006791471,0.002060953,0.49044773,-0.607543588,-0.627319515
2020-08-30 17:06:15.2540,1598799975.254030,0.011226048,0.011383248,-0.001851441,0.490707099,-0.600188851,-0.629211664
2020-08-30 17:06:15.2840,1598799975.283800,-0.012241727,0.010449144,-0.002976151,0.49209556,-0.601638317,-0.616867363
2020-08-30 17:06:15.3140,1598799975.313790,-0.066326536,0.003065265,0.001117242,0.498702615,-0.605575144,-0.608047783
2020-08-30 17:06:15.3440,1598799975.343940,-0.108047344,-0.019059168,0.006744559,0.49777171,-0.593703568,-0.586471975
2020-08-30 17:06:15.3740,1598799975.373990,-0.20585008,-0.050366625,0.008145551,0.495971173,-0.588164628,-0.580475271
2020-08-30 17:06:15.4040,1598799975.403630,-0.221621856,-0.052631646,-0.002501119,0.492019266,-0.567489147,-0.590759575
2020-08-30 17:06:15.4340,1598799975.433660,-0.09100125,-0.059464872,0.00607308,0.493011117,-0.562880993,-0.614303946
2020-08-30 17:06:15.4630,1598799975.463490,-0.092258528,-0.051340498,0.00922301,0.500060529,-0.597396195,-0.636520803
2020-08-30 17:06:15.4940,1598799975.493790,-0.143791497,-0.042010423,0.005843326,0.504104108,-0.617308915,-0.649292409
2020-08-30 17:06:15.5250,1598799975.524570,-0.132177457,-0.040262237,-0.003590314,0.507369488,-0.603850663,-0.628403068
2020-08-30 17:06:15.5530,1598799975.553370,-0.11110945,-0.050636269,-0.015472027,0.501723886,-0.572432995,-0.587448418
2020-08-30 17:06:15.5830,1598799975.583180,-0.304388642,-0.062034644,-0.02741267,0.498702645,-0.564345837,-0.55592376
2020-08-30 17:06:15.6200,1598799975.620080,-0.664743066,-0.117116451,-0.047849692,0.484649181,-0.500655532,-0.488556325
2020-08-30 17:06:15.6430,1598799975.643350,-1.119525194,-0.200051054,-0.109706536,0.445281506,-0.422393203,-0.388977408
2020-08-30 17:06:15.6730,1598799975.673080,-1.488329053,-0.388958544,-0.169980615,0.442992657,-0.295119643,-0.353576958
2020-08-30 17:06:15.7030,1598799975.702870,-1.627581835,-0.654126287,-0.184346095,0.402999371,-0.167861402,-0.409805655
2020-08-30 17:06:15.7330,1598799975.732990,-2.21076417,-0.771718264,-0.242315918,0.354690105,-0.185317487,-0.527969658
2020-08-30 17:06:15.7630,1598799975.763230,-2.538114071,-0.804005861,-0.388823539,0.354705334,-0.211898357,-0.671814144
2020-08-30 17:06:15.7930,1598799975.792870,-2.47927475,-1.062119603,-0.458588362,0.417663127,-0.063018441,-0.725204647
2020-08-30 17:06:15.8230,1598799975.822910,-2.290362835,-1.295669079,-0.60935849,0.348495156,-0.055740133,-0.769439816
2020-08-30 17:06:15.8530,1598799975.852920,-2.429461956,-1.427688479,-0.834802449,0.373595983,-0.161041141,-0.87046814
2020-08-30 17:06:15.8830,1598799975.882730,-2.335877657,-1.795054436,-0.916638792,0.338561833,-0.00872793,-0.841796875
2020-08-30 17:06:15.9130,1598799975.912570,-2.08217454,-2.071261883,-1.178395152,0.211486757,0.065429728,-0.940567017
2020-08-30 17:06:15.9430,1598799975.942580,-2.28259778,-2.06557107,-1.357099414,0.149215624,-0.006301861,-0.982254028
2020-08-30 17:06:15.9720,1598799975.972430,-1.954399586,-2.162442684,-1.289699554,0.089599594,0.175369285,-0.997650146
2020-08-30 17:06:16.0030,1598799976.002780,-1.469483018,-2.424545288,-1.305171847,0.011077881,0.324691787,-0.983642578
2020-08-30 17:06:16.0330,1598799976.032550,-2.169518709,-2.550639629,-1.244421959,-0.012390129,0.047790587,-1.008789063
2020-08-30 17:06:16.0620,1598799976.062310,-2.399942398,-2.445795774,-1.206221461,-0.093353264,0.083114624,-1.023849487
2020-08-30 17:06:16.0920,1598799976.092320,-1.411145926,-2.591459036,-1.203112483,-0.231368989,0.422088623,-1.006393433
2020-08-30 17:06:16.1230,1598799976.122520,-1.594287992,-2.675882339,-1.168227553,-0.220993027,0.221862793,-0.973892212
2020-08-30 17:06:16.1520,1598799976.151920,-2.289063692,-2.483785868,-1.279693365,-0.335037172,0.128799438,-0.992263794
2020-08-30 17:06:16.1820,1598799976.182080,-0.996263742,-2.199393272,-1.408617496,-0.476531982,0.394378632,-0.941253662
2020-08-30 17:06:16.2120,1598799976.212070,0.012496375,-2.187618971,-1.611741304,-0.517806828,0.543441653,-0.966339171
2020-08-30 17:06:16.2420,1598799976.241950,-0.758291364,-2.065989256,-1.239897609,-0.530608892,0.145492435,-0.919815063
2020-08-30 17:06:16.2720,1598799976.271590,-0.956831396,-1.969303131,-1.207216263,-0.609970033,0.317504883,-0.790771484
2020-08-30 17:06:16.3020,1598799976.302110,-0.205898553,-2.135889292,-1.232729673,-0.63369745,0.46836853,-0.72756958
2020-08-30 17:06:16.3320,1598799976.331810,0.049209382,-2.194437265,-0.993202925,-0.738235414,0.357650757,-0.652313292
2020-08-30 17:06:16.3640,1598799976.364260,0.143107638,-2.310230017,-0.96510011,-0.83493036,0.373016357,-0.621688843
2020-08-30 17:06:16.3910,1598799976.391320,-0.337769508,-2.468977451,-1.139092445,-0.935607612,0.237167269,-0.531662136
2020-08-30 17:06:16.4220,1598799976.421580,-0.627765357,-2.280032635,-1.083463311,-1.090789735,0.247512788,-0.451812774
2020-08-30 17:06:16.4510,1598799976.451220,0.22623235,-1.873487234,-1.098012328,-1.165329099,0.396331847,-0.459014773
2020-08-30 17:06:16.4820,1598799976.481580,1.270136118,-1.502321005,-0.979218781,-1.178451419,0.467590377,-0.440994292
2020-08-30 17:06:16.5110,1598799976.511490,0.856030285,-1.110271931,-0.662951767,-1.131530702,0.203643814,-0.427887052
2020-08-30 17:06:16.5440,1598799976.543570,0.647197723,-0.868829131,-0.544696927,-1.111007631,0.224700943,-0.436813384
2020-08-30 17:06:16.5710,1598799976.571290,0.34623307,-0.737811804,-0.501552045,-1.060851812,0.139114365,-0.406921595
2020-08-30 17:06:16.6010,1598799976.600920,0.126697779,-0.581728816,-0.422441632,-1.072250128,0.237564087,-0.429962352
2020-08-30 17:06:16.6310,1598799976.631210,-0.880435169,-0.436942905,-0.172151178,-1.015182197,0.020019546,-0.350387767
2020-08-30 17:06:16.6690,1598799976.668700,-1.324708939,-0.134314656,-0.17043677,-1.033965766,0.160400376,-0.304336771
2020-08-30 17:06:16.6910,1598799976.691240,-1.060385466,-0.010247079,-0.340153217,-0.974364996,0.185684219,-0.241394266
2020-08-30 17:06:16.7270,1598799976.726860,-0.481797516,-0.009610184,-0.413639009,-0.957351387,0.184829712,-0.182785243
2020-08-30 17:06:16.7510,1598799976.751450,-0.318970501,0.051660985,-0.543948174,-0.978378177,0.207077041,-0.16664134
2020-08-30 17:06:16.7820,1598799976.781770,0.223739639,0.097064734,-0.428459644,-0.984985292,0.27696231,-0.213165343
2020-08-30 17:06:16.8110,1598799976.811480,0.830904961,-0.04065625,-0.274148941,-0.943725467,0.270355225,-0.197921783
2020-08-30 17:06:16.8420,1598799976.842190,0.695720494,-0.008574215,-0.008609402,-0.98805213,0.187103286,-0.218124598
2020-08-30 17:06:16.8710,1598799976.870690,0.490514338,-0.036911357,0.197523266,-0.988494635,0.135849029,-0.241714731
2020-08-30 17:06:16.9010,1598799976.900720,0.374691069,0.204195663,0.275494933,-1.030883551,0.156616241,-0.244461328
2020-08-30 17:06:16.9320,1598799976.931720,0.647988677,0.297430813,0.345221013,-0.979278445,0.230880767,-0.233749464
2020-08-30 17:06:16.9620,1598799976.962440,0.959278405,0.367478758,0.252927125,-0.962722659,0.23046878,-0.258682266
2020-08-30 17:06:16.9930,1598799976.992820,0.129812881,0.304651767,0.190440372,-0.919876039,1.49E-08,-0.28596507
2020-08-30 17:06:17.0200,1598799977.020360,-0.160026133,0.198104739,0.024947684,-0.911987245,0.070663467,-0.266052336
2020-08-30 17:06:17.0500,1598799977.050480,0.05693841,0.146366939,-0.079458103,-0.945007265,0.13716127,-0.27394107
2020-08-30 17:06:17.0800,1598799977.080480,0.14927046,0.045563944,-0.18988739,-0.931365669,0.111450225,-0.288467586
2020-08-30 17:06:17.1100,1598799977.110140,-0.192559049,-0.002393285,-0.121941291,-0.935745001,0.046661407,-0.26939413
2020-08-30 17:06:17.1400,1598799977.140470,-0.273260027,-0.045235511,-0.016496524,-0.937560976,0.094055191,-0.285995543
2020-08-30 17:06:17.1700,1598799977.170260,-0.246633202,0.083325215,0.094225124,-1.005477846,0.109222427,-0.246856779
2020-08-30 17:06:17.2000,1598799977.200450,-0.277027845,0.215646192,-0.027331386,-1.02371186,0.177459747,-0.351715297
2020-08-30 17:06:17.2310,1598799977.230980,-0.453690767,0.13665098,-0.014971123,-0.984466076,-0.005813658,-0.323974997
2020-08-30 17:06:17.2600,1598799977.260130,-0.716158569,0.143264189,0.076614439,-0.974852562,0.028686404,-0.304947585
2020-08-30 17:06:17.2900,1598799977.290190,-0.140188247,0.10297744,0.136377469,-0.94502157,0.102630481,-0.287964642
2020-08-30 17:06:17.3200,1598799977.319730,0.598720193,0.049531121,0.219790235,-0.951231897,0.187499881,-0.24212721
2020-08-30 17:06:17.3500,1598799977.350370,0.474301279,-0.056115858,0.243942395,-0.932875574,0.068740726,-0.261124372
2020-08-30 17:06:17.4300,1598799977.429710,0.160820857,0.020733653,0.241365537,-0.949751854,0.073837176,-0.20356819
2020-08-30 17:06:17.4300,1598799977.430000,-0.150070444,0.035176329,0.039873388,-0.974562883,0.143890247,-0.285080492
2020-08-30 17:06:17.4400,1598799977.439500,-0.107197799,0.012476075,-0.116374955,-0.96086055,0.200103655,-0.24214229
2020-08-30 17:06:17.4690,1598799977.469220,0.202286005,-0.022725631,-0.082222447,-0.910735428,0.162643313,-0.211075395
2020-08-30 17:06:17.4990,1598799977.499040,0.068997204,-0.101524219,-0.077927455,-0.922560453,0.126998752,-0.25119105
2020-08-30 17:06:17.5290,1598799977.529260,-0.291968197,-0.109461099,-0.075003132,-0.943144977,0.119110018,-0.202728808
2020-08-30 17:06:17.5590,1598799977.559090,0.213193253,0.005929407,-0.205727279,-0.962859571,0.250900239,-0.243988395
2020-08-30 17:06:17.5890,1598799977.588760,0.707252026,0.009707986,-0.293283939,-0.942031145,0.188339159,-0.291718125
2020-08-30 17:06:17.6190,1598799977.618710,0.814078033,0.015223882,-0.29896602,-0.974257767,0.1156158,-0.29116869
2020-08-30 17:06:17.6490,1598799977.649380,0.509117067,-0.092673689,-0.154536843,-0.910658836,0.043136537,-0.266144514
2020-08-30 17:06:17.6790,1598799977.679200,0.733003974,-0.088968031,-0.085024968,-0.982298791,0.120986827,-0.303864241
2020-08-30 17:06:17.7090,1598799977.708730,0.538139939,-0.061623365,0.025034253,-0.969634056,0.045913592,-0.315903395
2020-08-30 17:06:17.7390,1598799977.738730,0.452434868,-0.063488863,0.106527038,-0.972991168,0.10833732,-0.323471606
2020-08-30 17:06:17.7690,1598799977.768850,0.192689314,-0.047611713,0.128566444,-0.966597974,0.046646088,-0.330536246
2020-08-30 17:06:17.7990,1598799977.798550,-0.020616036,-0.047694057,0.073896185,-0.961074769,0.054580696,-0.299209654
2020-08-30 17:06:17.8290,1598799977.828560,0.097020052,-0.016389616,0.002838348,-0.952697396,0.074218735,-0.294311732
2020-08-30 17:06:17.8590,1598799977.858770,0.285337746,-0.004392831,-0.03626433,-0.943939388,0.095306471,-0.294372469
2020-08-30 17:06:17.8890,1598799977.888620,0.483325124,0.01550267,-0.014615534,-0.954803765,0.113296524,-0.304549903
2020-08-30 17:06:17.9190,1598799977.918500,0.312545419,0.026253052,0.017894052,-0.967743278,0.072647177,-0.316085547
2020-08-30 17:06:17.9480,1598799977.948310,0.02211092,0.108611092,0.042002492,-0.98445189,0.043319814,-0.30787617
2020-08-30 17:06:17.9780,1598799977.978370,0.184269726,0.141834825,0.072824553,-0.96629405,0.08010871,-0.296233565
2020-08-30 17:06:18.0080,1598799978.008430,0.315204054,0.118135042,0.06771259,-0.948227704,0.064544812,-0.289718062
2020-08-30 17:06:18.0380,1598799978.038160,0.16047518,0.077362709,0.04568994,-0.949601233,0.043594509,-0.30412215
2020-08-30 17:06:18.0680,1598799978.068000,0.031001352,0.052850574,0.024814695,-0.95240891,0.046890393,-0.308714926
2020-08-30 17:06:18.0980,1598799978.097960,0.098339111,0.077417701,0.002877972,-0.954590976,0.086639531,-0.301909536
2020-08-30 17:06:18.1280,1598799978.128100,0.279283047,0.096059695,-0.008841591,-0.955125213,0.119796872,-0.288176477
2020-08-30 17:06:18.1580,1598799978.158150,0.214563981,0.100924984,-0.007212099,-0.954301238,0.07467664,-0.289824396
2020-08-30 17:06:18.1880,1598799978.187860,0.079090849,0.091482565,-0.007239111,-0.953111351,0.061538823,-0.277296841
2020-08-30 17:06:18.2180,1598799978.217880,0.039797507,0.087384894,-0.005777473,-0.949526191,0.06355308,-0.260526955
2020-08-30 17:06:18.2480,1598799978.247570,0.123079084,0.059181221,0.000850602,-0.944292784,0.081863686,-0.262464523
2020-08-30 17:06:18.2780,1598799978.277600,0.138141647,0.051275268,0.000585885,-0.949068725,0.071762308,-0.269346267
2020-08-30 17:06:18.3080,1598799978.307630,0.038819592,0.033082105,0.019530833,-0.942782521,0.064514384,-0.27222982
2020-08-30 17:06:18.3370,1598799978.337450,-0.069329776,0.013221184,0.034414917,-0.942156911,0.057617463,-0.281217307
2020-08-30 17:06:18.3670,1598799978.367400,0.003995833,0.001843805,0.026255714,-0.948199153,0.080444567,-0.282789111
2020-08-30 17:06:18.3970,1598799978.397400,0.031589113,-0.024989141,0.009496137,-0.941836298,0.065628313,-0.300123096
2020-08-30 17:06:18.4270,1598799978.427250,0.001105504,-0.03935099,-0.005758964,-0.943301082,0.067947619,-0.301755756
2020-08-30 17:06:18.4580,1598799978.457580,5.81E-05,-0.045796067,0.000216237,-0.946993589,0.06932091,-0.308851212
2020-08-30 17:06:18.4870,1598799978.487320,0.007899494,-0.056944318,0.004663982,-0.945284426,0.061462596,-0.313566357
2020-08-30 17:06:18.5170,1598799978.517100,0.080703393,-0.073987126,0.010826577,-0.945925474,0.072830454,-0.313856125
2020-08-30 17:06:18.5470,1598799978.547040,0.092477761,-0.08490818,0.007374986,-0.948351979,0.061096452,-0.305356622
2020-08-30 17:06:18.5770,1598799978.577090,0.15751721,-0.101646632,0.013595692,-0.955096781,0.071579292,-0.313046813
2020-08-30 17:06:18.6070,1598799978.606990,0.117017463,-0.065216318,0.014923336,-0.959460974,0.0388797,-0.31675452
2020-08-30 17:06:18.6370,1598799978.637290,0.124813594,-0.055493522,0.011584092,-0.952518702,0.062134124,-0.324276775
2020-08-30 17:06:18.6690,1598799978.669480,0.032632805,-0.012545121,0.017849654,-0.965305507,0.033829078,-0.3292512
2020-08-30 17:06:18.6970,1598799978.697140,0.006158053,0.006903367,0.018487655,-0.956058741,0.050186507,-0.322842509
2020-08-30 17:06:18.7270,1598799978.726820,0.023899235,0.026562868,0.021091521,-0.959293783,0.064514481,-0.317822218
2020-08-30 17:06:18.7570,1598799978.756620,0.062383778,0.036000974,0.021731269,-0.953296721,0.068573341,-0.314663887
2020-08-30 17:06:18.7870,1598799978.786560,-0.003856764,0.048888281,0.021108545,-0.953433931,0.053406052,-0.310803473
2020-08-30 17:06:18.8170,1598799978.816550,-0.026374057,0.03623201,0.014881295,-0.94614023,0.066726983,-0.302350104
2020-08-30 17:06:18.8470,1598799978.846640,0.039791647,0.032442592,0.006322162,-0.947696447,0.074295342,-0.300793827
2020-08-30 17:06:18.8770,1598799978.876570,0.084562846,0.016316175,-0.005253344,-0.943850994,0.064087175,-0.302411407
2020-08-30 17:06:18.9060,1598799978.906350,0.078370467,0.005618969,-0.006202685,-0.951678455,0.074997194,-0.309262991
2020-08-30 17:06:18.9360,1598799978.936300,-0.018913744,0.018320693,0.005599779,-0.961215138,0.046646379,-0.30424279
2020-08-30 17:06:18.9660,1598799978.966320,0.023737311,0.011089501,0.01065522,-0.957965076,0.067062639,-0.302381247
2020-08-30 17:06:18.9960,1598799978.996200,0.062780321,0.004279621,0.00678812,-0.950930715,0.058456667,-0.305768728
2020-08-30 17:06:19.0260,1598799979.026350,0.080990747,-0.005918421,0.011556473,-0.946169674,0.054977678,-0.305280715
2020-08-30 17:06:19.0560,1598799979.056020,0.135775954,-0.014275331,0.007352749,-0.940859735,0.060684405,-0.300611347
2020-08-30 17:06:19.0860,1598799979.086100,0.136297673,-0.017258383,0.002897452,-0.9496032,0.056579828,-0.306119591
2020-08-30 17:06:19.1170,1598799979.116810,0.127468497,-0.043533351,-0.007594624,-0.949801981,0.042694349,-0.308347136
2020-08-30 17:06:19.1460,1598799979.145890,0.101268858,0.012572482,-0.000343464,-0.982288659,0.034637775,-0.365429819
2020-08-30 17:06:19.1760,1598799979.175800,0.101690702,0.145546734,0.049924102,-1.007160783,0.05900605,-0.467510819
2020-08-30 17:06:19.2060,1598799979.205630,0.251429856,0.445885271,0.237954304,-1.08870399,0.070953682,-0.578960896
2020-08-30 17:06:19.2360,1598799979.235600,0.495671004,0.818548203,0.389207929,-1.124134541,0.059540138,-0.723049968
2020-08-30 17:06:19.2660,1598799979.265610,0.492268562,1.215453029,0.528491914,-1.139973164,-0.017577752,-0.783734202
2020-08-30 17:06:19.2950,1598799979.295460,0.565107405,1.604496598,0.629059255,-1.110584438,-0.033843607,-0.811230958
2020-08-30 17:06:19.3250,1598799979.325430,1.047148585,1.941612601,0.63277185,-1.108875394,0.088547193,-0.830625057
2020-08-30 17:06:19.3550,1598799979.355360,1.285815477,2.262076855,0.584557831,-1.134845614,0.118896902,-0.882779837
2020-08-30 17:06:19.3860,1598799979.385640,1.140846848,2.551180363,0.576810062,-1.171542645,0.098144881,-0.915617168
2020-08-30 17:06:19.4150,1598799979.415460,1.204948902,2.75786829,0.519028544,-1.11668694,0.157547325,-0.913038671
2020-08-30 17:06:19.4460,1598799979.445640,1.38955152,3.001610994,0.423603714,-1.064883232,0.161804475,-0.921919525
2020-08-30 17:06:19.4750,1598799979.475470,1.491494298,3.160662889,0.323603362,-0.99486053,0.173996165,-0.925444603
2020-08-30 17:06:19.5050,1598799979.505210,1.362202644,3.204036236,0.23393847,-0.88312,0.118560853,-0.842162371
2020-08-30 17:06:19.5350,1598799979.535260,1.339834809,3.110482693,0.135989189,-0.740938246,0.133819507,-0.837325573
2020-08-30 17:06:19.5650,1598799979.565210,1.44275403,3.074139833,0.050099298,-0.675080955,0.161529325,-0.840484321
2020-08-30 17:06:19.5950,1598799979.595230,1.306288838,2.971474171,0.0206587,-0.562424868,0.040221818,-0.773406744
2020-08-30 17:06:19.6250,1598799979.625030,1.587200642,2.797439098,-0.033179842,-0.414109156,0.032378644,-0.759216189
2020-08-30 17:06:19.6550,1598799979.655160,1.918828964,2.596670151,-0.095828615,-0.354736954,0.01064986,-0.758788943
2020-08-30 17:06:19.6850,1598799979.684990,1.627319336,2.359691381,-0.157658845,-0.277618736,-0.110337317,-0.728118718
2020-08-30 17:06:19.7150,1598799979.714520,1.511714935,2.112491369,0.006476778,-0.203689614,-0.151429445,-0.707260013
2020-08-30 17:06:19.7440,1598799979.744270,1.580029011,1.909422755,0.037892357,-0.121948048,-0.187180847,-0.645522833
2020-08-30 17:06:19.7740,1598799979.774220,1.823942661,1.682524681,0.046452023,-0.072661966,-0.159822017,-0.67857331
2020-08-30 17:06:19.8050,1598799979.804630,1.646475673,1.484992743,0.029941738,-0.043303892,-0.288301229,-0.613891184
2020-08-30 17:06:19.9220,1598799979.922300,1.210582495,1.379564881,-0.105182849,-0.038741335,-0.319978654,-0.536406994
2020-08-30 17:06:19.9220,1598799979.922410,0.892120123,1.257091522,-0.119541474,0.0441598,-0.361162215,-0.530425429
2020-08-30 17:06:19.9220,1598799979.922440,0.822224915,1.096552849,-0.13629736,0.087418616,-0.363008618,-0.492583513
2020-08-30 17:06:19.9390,1598799979.938890,0.693195581,1.041204095,-0.120687984,0.10134998,-0.449709117,-0.512923419
2020-08-30 17:06:19.9550,1598799979.954500,0.810577869,0.971557021,0.023874599,0.159562349,-0.45483613,-0.557128072
2020-08-30 17:06:19.9840,1598799979.984060,0.896869063,0.865453005,0.094321206,0.217042327,-0.450151801,-0.540785789
2020-08-30 17:06:20.0140,1598799980.014350,0.904824972,0.737418294,0.116334774,0.269471645,-0.452776551,-0.531157374
2020-08-30 17:06:20.0440,1598799980.043780,0.683714986,0.60185957,0.151221037,0.351106197,-0.456240237,-0.55566287
2020-08-30 17:06:20.0740,1598799980.074470,0.321000934,0.558063149,0.058744133,0.409181237,-0.555147946,-0.653425872
2020-08-30 17:06:20.1040,1598799980.103810,0.314742774,0.639105082,-0.018740561,0.432923853,-0.575121582,-0.76786679
2020-08-30 17:06:20.1340,1598799980.133990,0.397670686,0.651264906,-0.006443815,0.461381614,-0.58333075,-0.775282502
2020-08-30 17:06:20.1660,1598799980.165770,0.222475961,0.577057421,0.044708375,0.506013662,-0.647295833,-0.744017124
2020-08-30 17:06:20.1940,1598799980.193540,0.195798546,0.530211091,0.045711987,0.51750353,-0.695360839,-0.79069382
2020-08-30 17:06:20.2240,1598799980.223550,0.43835181,0.397773296,0.141274557,0.526277244,-0.660387576,-0.73800528
2020-08-30 17:06:20.2540,1598799980.253530,0.464636952,0.225060955,0.230957136,0.509904534,-0.680864871,-0.617201388
2020-08-30 17:06:20.2840,1598799980.283570,0.146315157,0.168897912,0.164080441,0.453187674,-0.727190614,-0.549345493
2020-08-30 17:06:20.3140,1598799980.313510,0.257634491,0.184135094,0.057106555,0.409379721,-0.629153073,-0.519148231
2020-08-30 17:06:20.3430,1598799980.343480,0.346120954,0.247490942,-0.045340173,0.394197315,-0.637133479,-0.543577492
2020-08-30 17:06:20.3730,1598799980.373340,0.037509318,0.254947156,-0.122448735,0.383989185,-0.682375729,-0.564298928
2020-08-30 17:06:20.4030,1598799980.403410,-0.057281107,0.222948536,-0.137555614,0.42325002,-0.64909631,-0.548521399
2020-08-30 17:06:20.4330,1598799980.433230,0.155204788,0.224299833,-0.153079897,0.43155086,-0.628573239,-0.550733864
2020-08-30 17:06:20.4640,1598799980.463530,0.331428826,0.202931106,-0.222233802,0.444505572,-0.651919186,-0.572874367
2020-08-30 17:06:20.4930,1598799980.493170,-0.069997437,0.123187192,-0.168014392,0.464845538,-0.787935972,-0.560026467
2020-08-30 17:06:20.5230,1598799980.523370,0.014040477,0.059055697,-0.123677097,0.45988664,-0.664553702,-0.561063886
2020-08-30 17:06:20.5530,1598799980.553130,0.03732476,-0.001540939,-0.042199492,0.449739486,-0.643114984,-0.55697453
2020-08-30 17:06:20.5830,1598799980.582940,-0.127871916,-0.046258476,0.00051706,0.454912305,-0.65713793,-0.604551375
2020-08-30 17:06:20.6130,1598799980.613230,-0.417228103,-0.068383574,-0.00845471,0.445268631,-0.71473968,-0.618803263
2020-08-30 17:06:20.6440,1598799980.643860,-0.146394745,-0.074648529,-0.014654074,0.433839649,-0.620913208,-0.57963407
2020-08-30 17:06:20.6820,1598799980.681640,0.030219447,-0.105843514,-0.011852182,0.443635851,-0.658083677,-0.590132058
2020-08-30 17:06:20.7030,1598799980.702520,-0.011997515,-0.112734571,-0.016984569,0.446779191,-0.68664819,-0.607603371
2020-08-30 17:06:20.7320,1598799980.732300,-0.196959391,-0.113698453,-0.035791621,0.435686141,-0.684740961,-0.603010416
2020-08-30 17:06:20.7620,1598799980.762280,-0.157680422,-0.112629905,-0.04956416,0.431566268,-0.623812616,-0.609693766
2020-08-30 17:06:20.7920,1598799980.792280,0.087739997,-0.087685503,-0.035402153,0.42686674,-0.590350389,-0.60197264
2020-08-30 17:06:20.8230,1598799980.822610,0.202965647,-0.096995331,-0.03091098,0.438051492,-0.620272994,-0.624357164
2020-08-30 17:06:20.8520,1598799980.852370,-0.008313032,-0.061755631,-0.05352664,0.431688666,-0.69441545,-0.664197862
2020-08-30 17:06:20.8820,1598799980.882470,-0.203292117,-0.056034096,-0.027343884,0.447313815,-0.680560768,-0.642469227
2020-08-30 17:06:20.9120,1598799980.912440,-0.007117539,-0.065984644,-0.010148119,0.450915068,-0.628253877,-0.628308952
2020-08-30 17:06:20.9430,1598799980.942530,0.154007435,-0.059583113,0.001890206,0.451800138,-0.645206511,-0.626752436
2020-08-30 17:06:20.9720,1598799980.972460,-0.024315435,-0.033089101,-0.001464198,0.45302096,-0.683704674,-0.646298826
2020-08-30 17:06:21.0020,1598799981.002260,-0.161332145,-0.00207264,-0.012478177,0.448321223,-0.685474575,-0.635297298
2020-08-30 17:06:21.0320,1598799981.032490,0.001933481,0.017729249,-0.01439647,0.448290706,-0.644748807,-0.62392956
2020-08-30 17:06:21.0630,1598799981.062670,0.04639389,0.025553219,-0.024750821,0.452196896,-0.660343289,-0.626416802
2020-08-30 17:06:21.0930,1598799981.092860,-0.114828818,0.023686521,-0.022646353,0.454867244,-0.690967679,-0.619870722
2020-08-30 17:06:21.1220,1598799981.122230,-0.065768339,0.015191169,-0.01830017,0.456744134,-0.64394021,-0.598950863
2020-08-30 17:06:21.1520,1598799981.152100,0.043046828,0.016464826,-0.007367874,0.454241723,-0.633442104,-0.610562861
2020-08-30 17:06:21.1820,1598799981.181730,0.015941441,0.017295731,0.005477427,0.456988215,-0.65340054,-0.623822749
2020-08-30 17:06:21.2120,1598799981.212340,-0.041269116,0.029374544,0.011403855,0.448534906,-0.656360805,-0.624845028
2020-08-30 17:06:21.2410,1598799981.241490,-0.0023859,0.024027094,0.014351821,0.45239535,-0.649448514,-0.611722529
2020-08-30 17:06:21.2720,1598799981.271740,0.083897591,0.00510671,0.014987955,0.446642816,-0.631931484,-0.59545666
2020-08-30 17:06:21.3020,1598799981.301850,0.000863955,-0.005691298,0.00794825,0.443743587,-0.664631009,-0.597760737
2020-08-30 17:06:21.3310,1598799981.331330,-0.082440257,0.003834696,-0.004457382,0.444765896,-0.667804778,-0.604962885
2020-08-30 17:06:21.3620,1598799981.361670,-0.022481315,0.000951912,-0.011886536,0.447451383,-0.635745943,-0.598874688
2020-08-30 17:06:21.3920,1598799981.391600,-0.025466718,-0.008898765,-0.010010796,0.452837676,-0.645816743,-0.607389152
2020-08-30 17:06:21.4210,1598799981.421430,-0.005304192,-0.005563511,0.00149543,0.449526489,-0.633884251,-0.609342337
2020-08-30 17:06:21.4510,1598799981.451120,-0.025976714,0.007870538,0.001073586,0.44775638,-0.650974035,-0.619870901
2020-08-30 17:06:21.4820,1598799981.481510,-0.00284716,0.01786951,0.011890375,0.448855102,-0.641757786,-0.624601126
2020-08-30 17:06:21.5110,1598799981.511290,-0.003101225,0.02584235,0.017399523,0.451067656,-0.653400302,-0.625135124
2020-08-30 17:06:21.5410,1598799981.541160,-0.008037927,0.022494841,0.019374637,0.460970521,-0.657550573,-0.615766227
2020-08-30 17:06:21.5710,1598799981.571000,0.026666258,0.011465007,0.016536545,0.459749788,-0.647021949,-0.603528798
2020-08-30 17:06:21.6010,1598799981.600990,-0.03805761,0.01324928,0.004682605,0.456011295,-0.665393412,-0.607923388
2020-08-30 17:06:21.6310,1598799981.631020,-0.030936584,0.00797853,0.000615046,0.45317319,-0.645816386,-0.60790813
2020-08-30 17:06:21.6670,1598799981.667230,0.008521874,0.005207112,-0.00346349,0.449114263,-0.63530302,-0.608640611
2020-08-30 17:06:21.6910,1598799981.690840,-0.010566599,0.016444765,-0.008728787,0.441805243,-0.656680465,-0.624616623
2020-08-30 17:06:21.7210,1598799981.720670,-0.018634113,0.016630741,-0.002771335,0.444032937,-0.649356067,-0.623060286
2020-08-30 17:06:21.7510,1598799981.750570,-0.014781849,0.009840434,0.017566143,0.446672797,-0.653705001,-0.624372482
2020-08-30 17:06:21.7810,1598799981.780570,0.031479657,0.020088101,0.02493469,0.439668924,-0.65611577,-0.636259139
2020-08-30 17:06:21.8110,1598799981.810610,0.038898956,0.038990021,0.020886019,0.441042274,-0.660083115,-0.629240036
2020-08-30 17:06:21.8400,1598799981.840400,0.023290966,0.046898186,0.014140194,0.44929716,-0.661410451,-0.618604839
2020-08-30 17:06:21.8710,1598799981.870610,0.085014522,0.043546069,-0.001249528,0.451616496,-0.647906482,-0.602628827
2020-08-30 17:06:21.9000,1598799981.900450,0.047236782,0.042001564,-0.01494006,0.461031079,-0.657473564,-0.591840863
2020-08-30 17:06:21.9300,1598799981.930140,-0.112295359,0.03554127,-0.025444174,0.465669751,-0.673418999,-0.582639813
2020-08-30 17:06:21.9600,1598799981.960320,-0.049800552,0.011478056,-0.0299371,0.462236673,-0.629962146,-0.575071394
2020-08-30 17:06:21.9910,1598799981.990680,0.054339431,0.000691855,-0.022016764,0.450853556,-0.606509268,-0.590955913
2020-08-30 17:06:22.0200,1598799982.020140,-0.074752778,0.018235385,-0.024857385,0.447755933,-0.653689444,-0.612775981
2020-08-30 17:06:22.0500,1598799982.050340,-0.098361433,0.029257588,-0.013041168,0.456361949,-0.645556569,-0.614530742
2020-08-30 17:06:22.0800,1598799982.080230,-0.033699349,0.005199077,0.014724206,0.461748213,-0.632952571,-0.607328653
2020-08-30 17:06:22.1100,1598799982.110210,-0.00273291,-0.002580949,0.028589021,0.463564068,-0.647082329,-0.621793926
2020-08-30 17:06:22.1400,1598799982.139860,-0.039879479,0.001545753,0.031966273,0.457430005,-0.662173212,-0.629636943
2020-08-30 17:06:22.1700,1598799982.169650,-0.028692339,-0.000434529,0.047474332,0.46177876,-0.649218559,-0.624555826
2020-08-30 17:06:22.2000,1598799982.199730,0.008688855,0.006839806,0.041932181,0.455705702,-0.65501684,-0.625410378
2020-08-30 17:06:22.2300,1598799982.229660,0.019680787,0.0221145,0.025688745,0.453020096,-0.660845578,-0.632841349
2020-08-30 17:06:22.2600,1598799982.259660,0.036213424,0.030795785,0.001042179,0.45031929,-0.649157286,-0.618254006
2020-08-30 17:06:22.2890,1598799982.289450,0.007534907,0.030171761,-0.009956886,0.451356858,-0.651659727,-0.609358191
2020-08-30 17:06:22.3200,1598799982.319870,-0.064808533,0.027458176,-0.016640926,0.449022263,-0.658922911,-0.609648108
2020-08-30 17:06:22.3490,1598799982.349410,0.024606038,0.023518696,-0.013471022,0.445268571,-0.629259765,-0.603422523
2020-08-30 17:06:22.3800,1598799982.379620,0.047308154,0.008779076,-0.008201768,0.451219469,-0.640810668,-0.609114051
2020-08-30 17:06:22.4090,1598799982.409420,-0.037001401,-0.002820366,0.00791692,0.453508347,-0.643923461,-0.612577796
2020-08-30 17:06:22.4400,1598799982.439550,-0.044556521,-0.019554606,0.020599045,0.452150226,-0.63676703,-0.606153905
2020-08-30 17:06:22.4690,1598799982.469070,0.003713803,-0.032120597,0.025202226,0.454774708,-0.622606874,-0.605131567
2020-08-30 17:06:22.4990,1598799982.499070,-0.014312334,-0.027322114,0.018051334,0.454576343,-0.63374579,-0.612303197
2020-08-30 17:06:22.5290,1598799982.528960,-0.064018108,-0.022515109,0.020662105,0.455201834,-0.639116645,-0.614637911
2020-08-30 17:06:22.5590,1598799982.558920,-0.05110497,-0.035809562,0.026071653,0.460725486,-0.639253914,-0.614561677
2020-08-30 17:06:22.5890,1598799982.588990,-0.007136447,-0.036297545,0.026869647,0.45967257,-0.637712717,-0.615095735
2020-08-30 17:06:22.6190,1598799982.619070,-0.076918989,-0.018435368,0.012921419,0.456803858,-0.659258068,-0.626768768
2020-08-30 17:06:22.6490,1598799982.648930,-0.059081137,-0.014148788,0.003900816,0.447526366,-0.625658035,-0.602766812
2020-08-30 17:06:22.6790,1598799982.678720,-0.062203959,-0.052508652,0.046178363,0.470750213,-0.600419939,-0.576292813
2020-08-30 17:06:22.7090,1598799982.708570,-0.228102654,-0.109408773,0.063982926,0.486619413,-0.624269426,-0.563200772
2020-08-30 17:06:22.7380,1598799982.738350,-0.268011451,-0.136819571,0.057446033,0.486863673,-0.602190256,-0.570799589
2020-08-30 17:06:22.7680,1598799982.768430,-0.232948542,-0.18435891,0.059867546,0.48990044,-0.57678479,-0.59298563
2020-08-30 17:06:22.7990,1598799982.798560,-0.43038252,-0.206616774,0.063623875,0.457994223,-0.602465153,-0.618788302
2020-08-30 17:06:22.8290,1598799982.828600,-0.652089596,-0.224422619,0.062535837,0.468263358,-0.610338628,-0.616438508
2020-08-30 17:06:22.8580,1598799982.858250,-0.50747329,-0.26672551,0.063908629,0.468324363,-0.552721322,-0.593962371
2020-08-30 17:06:22.8890,1598799982.888530,-0.434924275,-0.290179282,0.046920206,0.434755236,-0.557589173,-0.631163239
2020-08-30 17:06:22.9180,1598799982.918140,-0.75456965,-0.328815162,0.017856978,0.422166616,-0.568789005,-0.59763974
2020-08-30 17:06:22.9490,1598799982.948810,-0.897640467,-0.415438265,-0.005882268,0.41555956,-0.504610419,-0.573881865
2020-08-30 17:06:22.9780,1598799982.978120,-0.955554366,-0.530950248,0.012413173,0.407899618,-0.468355536,-0.619353116
2020-08-30 17:06:23.0080,1598799983.008480,-1.311670184,-0.614928007,-0.09448868,0.364061177,-0.486772895,-0.634261072
2020-08-30 17:06:23.0380,1598799983.038220,-1.471082211,-0.753923416,-0.155160666,0.344926506,-0.402376324,-0.683943808
2020-08-30 17:06:23.0690,1598799983.068980,-1.61077404,-0.837061763,-0.158845246,0.27432403,-0.356584519,-0.766554952
2020-08-30 17:06:23.0980,1598799983.097740,-1.490330935,-0.881182492,-0.220850348,0.275849849,-0.285905659,-0.784743607
2020-08-30 17:06:23.1280,1598799983.127800,-1.253687501,-0.986469388,-0.139174581,0.254716396,-0.269120842,-0.84139955
2020-08-30 17:06:23.1580,1598799983.157620,-1.227077484,-1.04193449,-0.065985493,0.226884246,-0.31048727,-0.875533581
2020-08-30 17:06:23.1880,1598799983.187580,-0.949213684,-1.066334844,-0.038267031,0.213654697,-0.310349792,-0.882674813
2020-08-30 17:06:23.2180,1598799983.217730,-0.759451449,-1.130462646,-0.040324513,0.188447088,-0.264527559,-0.884216011
2020-08-30 17:06:23.2470,1598799983.247280,-0.984739721,-1.157597184,-0.059751626,0.148301065,-0.260575444,-0.865249395
2020-08-30 17:06:23.2780,1598799983.277740,-1.100520611,-1.214454055,-0.14131397,0.13086012,-0.24003695,-0.892761111
2020-08-30 17:06:23.3080,1598799983.307620,-0.929867148,-1.32824409,-0.143111542,0.081879243,-0.197251171,-0.890228152
2020-08-30 17:06:23.3370,1598799983.337270,-0.825817466,-1.427067757,-0.054002792,0.016830847,-0.153122619,-0.876464784
2020-08-30 17:06:23.3670,1598799983.367380,-0.87699461,-1.4554497,0.004448876,-0.034103155,-0.182358384,-0.962768555
2020-08-30 17:06:23.3970,1598799983.397420,-0.921055794,-1.442828894,-0.058096394,-0.083160338,-0.166992649,-0.980422974
2020-08-30 17:06:23.4270,1598799983.427000,-1.021293402,-1.493155122,-0.076841928,-0.113464465,-0.115021095,-0.922042847
2020-08-30 17:06:23.4570,1598799983.457080,-1.237628698,-1.585265875,-0.048071362,-0.146576203,-0.085785121,-0.918060303
2020-08-30 17:06:23.4870,1598799983.486940,-1.132142782,-1.76136446,-0.139198944,-0.167465657,-0.045379708,-0.897628725
2020-08-30 17:06:23.5170,1598799983.517070,-1.196936607,-1.873228908,-0.342207998,-0.25485298,-0.049087476,-0.848388612
2020-08-30 17:06:23.5470,1598799983.546810,-1.36350596,-1.923048258,-0.440921187,-0.34379667,0.05468769,-0.84867847
2020-08-30 17:06:23.5770,1598799983.576720,-1.440113068,-2.022116184,-0.437258899,-0.37402457,0.113968216,-0.812530339
2020-08-30 17:06:23.6090,1598799983.608810,-1.30614996,-2.085466385,-0.530295253,-0.403764129,0.16575668,-0.728484869
2020-08-30 17:06:23.6370,1598799983.637300,-1.590666056,-2.045220852,-0.691396773,-0.434541404,0.047638535,-0.755767405
2020-08-30 17:06:23.6660,1598799983.666270,-1.809830666,-2.042760372,-0.757823825,-0.500398546,0.113297239,-0.804686964
2020-08-30 17:06:23.6960,1598799983.696310,-1.185681581,-2.080798149,-0.848685265,-0.622225046,0.401917383,-0.754821002
2020-08-30 17:06:23.7260,1598799983.726140,-0.891853154,-2.418321609,-0.906275868,-0.574694157,0.266205773,-0.727812827
2020-08-30 17:06:23.7560,1598799983.755970,-1.124617696,-2.704341888,-1.007494688,-0.754305482,0.13362211,-0.781554103
2020-08-30 17:06:23.7860,1598799983.786380,-0.696746528,-2.78045845,-1.152444601,-0.946642816,0.290650293,-0.779402375
2020-08-30 17:06:23.8160,1598799983.816050,-0.459906846,-2.803917885,-1.132854581,-1.010272086,0.265274838,-0.694654822
2020-08-30 17:06:23.8460,1598799983.845760,-0.224890083,-2.644504547,-0.947597384,-1.121020555,0.261368483,-0.62992686
2020-08-30 17:06:23.8760,1598799983.875720,0.032087654,-2.338609934,-0.721333981,-1.14099443,0.210175216,-0.610944688
2020-08-30 17:06:23.9060,1598799983.905760,0.018342283,-2.064318657,-0.572560549,-1.135623634,0.129242539,-0.601087153
2020-08-30 17:06:23.9360,1598799983.935820,-0.277114928,-1.720386744,-0.420967728,-1.157169044,0.059219912,-0.572965056
2020-08-30 17:06:23.9660,1598799983.966330,0.189724147,-1.320665598,-0.312066942,-1.163639188,0.190826967,-0.513318151
2020-08-30 17:06:23.9960,1598799983.995970,0.234369904,-0.97150743,-0.211932063,-1.143696189,0.082932048,-0.52167958
2020-08-30 17:06:24.0260,1598799984.025790,0.266280979,-0.661142766,-0.052567557,-1.139698565,0.093170688,-0.519634694
2020-08-30 17:06:24.0560,1598799984.055740,0.194651529,-0.405953735,0.03785589,-1.076466143,0.078919016,-0.492916554
2020-08-30 17:06:24.0860,1598799984.086000,0.20240292,-0.163479283,0.079944849,-1.006565988,0.088928796,-0.445217207
2020-08-30 17:06:24.1160,1598799984.116110,0.140941694,0.016655907,0.135794893,-0.960942149,0.076599702,-0.405407071
2020-08-30 17:06:24.1470,1598799984.146800,-0.032328352,0.061105222,0.163328245,-0.913899302,0.069199197,-0.368206114
2020-08-30 17:06:24.1760,1598799984.175730,-0.240102589,0.135162577,0.096650042,-0.940464914,0.092331558,-0.351726636
2020-08-30 17:06:24.2060,1598799984.205730,-0.2703031,0.239264354,-0.046020579,-0.98082459,0.117188141,-0.348781556
2020-08-30 17:06:24.2360,1598799984.235530,-0.287575841,0.398482472,-0.159840673,-1.002110422,0.146774888,-0.327602535
2020-08-30 17:06:24.2650,1598799984.265170,-0.338409454,0.403676093,-0.172863141,-0.958501041,0.168076195,-0.276638031
2020-08-30 17:06:24.2960,1598799984.295670,-0.371339709,0.376398444,-0.139303938,-0.930073678,0.16124025,-0.234523982
2020-08-30 17:06:24.3270,1598799984.326870,-0.360045522,0.310022801,-0.072800621,-0.921910226,0.153030992,-0.23377642
2020-08-30 17:06:24.3550,1598799984.355450,-0.129127875,0.201278925,-0.086877249,-0.908192635,0.165741563,-0.203685939
2020-08-30 17:06:24.3860,1598799984.385550,0.03747097,0.116881363,-0.013319202,-0.946629763,0.154053375,-0.225673765
2020-08-30 17:06:24.4150,1598799984.415240,-0.313082784,0.075555883,-0.096246518,-0.973012924,0.07620313,-0.245814919
2020-08-30 17:06:24.4450,1598799984.445140,-0.330008775,0.027251914,-0.080424294,-0.971669972,0.136109181,-0.232555062
2020-08-30 17:06:24.4760,1598799984.475770,-0.287630707,0.018314036,-0.092043459,-0.977834463,0.127197981,-0.254588783
2020-08-30 17:06:24.5050,1598799984.505470,-0.297516614,-0.009155139,-0.028672591,-0.968145251,0.126053646,-0.250194222
2020-08-30 17:06:24.5350,1598799984.535030,-0.193769187,0.025204301,-0.021388486,-0.98163408,0.135178387,-0.253215343
2020-08-30 17:06:24.5650,1598799984.564930,-0.167704821,0.028532008,-0.029227881,-0.959142923,0.104874507,-0.25326097
2020-08-30 17:06:24.5950,1598799984.594940,-0.137731746,0.01501895,-0.01149899,-0.958304107,0.086686045,-0.272547722
2020-08-30 17:06:24.6270,1598799984.627100,-0.110028207,-0.019878535,0.026295129,-0.940894008,0.084519327,-0.281290829
2020-08-30 17:06:24.6610,1598799984.660690,-0.052741483,-0.018334744,0.0474112,-0.949850917,0.11213775,-0.296000302
2020-08-30 17:06:24.6970,1598799984.696870,-0.003043968,-0.004297445,0.056019198,-0.946508765,0.131119639,-0.299632192
2020-08-30 17:06:24.7150,1598799984.714720,0.027243897,0.028275901,0.048981473,-0.952200174,0.128754511,-0.303065568
2020-08-30 17:06:24.7450,1598799984.744990,0.079512432,0.047134589,0.02683381,-0.958440602,0.140702069,-0.310664803
2020-08-30 17:06:24.7770,1598799984.776920,-0.04280363,0.068547599,0.037583299,-0.957723439,0.11088638,-0.297374398
2020-08-30 17:06:24.8320,1598799984.831610,-0.062569611,0.064202696,0.030080544,-0.951634705,0.131928191,-0.287258118
2020-08-30 17:06:24.8340,1598799984.834460,-0.06311769,0.055594742,0.022000629,-0.949696839,0.115128279,-0.27502057
2020-08-30 17:06:24.8640,1598799984.863950,-0.04027842,0.029008094,0.026812829,-0.943715036,0.126572371,-0.270260155
2020-08-30 17:06:24.8940,1598799984.893820,-0.041113589,-0.002774605,0.021386636,-0.938664258,0.102814391,-0.266140312
2020-08-30 17:06:24.9270,1598799984.927160,-0.02383367,-0.037902586,0.003010636,-0.946904063,0.130844831,-0.2736018
2020-08-30 17:06:24.9540,1598799984.954280,0.013064428,-0.048256867,-0.010986293,-0.95387727,0.124024123,-0.278316915
2020-08-30 17:06:24.9840,1598799984.983800,0.047069799,-0.05941591,-0.019956179,-0.961506426,0.126969025,-0.291988909
2020-08-30 17:06:25.0140,1598799985.013910,0.064798199,-0.054567806,-0.021195427,-0.960377038,0.132248476,-0.302944958
2020-08-30 17:06:25.0440,1598799985.044020,-0.038708221,-0.038505971,-0.022834506,-0.953464746,0.104050249,-0.29926756
2020-08-30 17:06:25.0740,1598799985.073850,-0.007993985,-0.034387924,-0.025701666,-0.951511621,0.12155208,-0.295681775
2020-08-30 17:06:25.1040,1598799985.103690,0.045999475,-0.028246898,-0.026234809,-0.948535979,0.115555376,-0.288662851
2020-08-30 17:06:25.1340,1598799985.133990,0.084480293,-0.033600427,-0.028734054,-0.948718846,0.116364017,-0.287121862
2020-08-30 17:06:25.1640,1598799985.163600,0.063145436,-0.027602457,-0.022608783,-0.948856235,0.111893184,-0.290539801
2020-08-30 17:06:25.1930,1598799985.193440,0.010452666,-0.014260507,-0.022352912,-0.954578042,0.111084469,-0.291119874
2020-08-30 17:06:25.2230,1598799985.223410,-0.006780382,0.001411752,-0.029853325,-0.959170938,0.11956837,-0.286740571
2020-08-30 17:06:25.2530,1598799985.253300,-0.010285368,0.017850956,-0.029542096,-0.95662266,0.11793565,-0.283078462
2020-08-30 17:06:25.2830,1598799985.283360,0.003456542,0.00805878,-0.02209289,-0.951037765,0.123367727,-0.282910764
2020-08-30 17:06:25.3130,1598799985.313380,-0.010172451,0.011943889,-0.020396229,-0.950824201,0.121780865,-0.282224149
2020-08-30 17:06:25.3430,1598799985.343210,0.022193745,0.013103339,-0.008626124,-0.949359357,0.122360684,-0.285794675
2020-08-30 17:06:25.3730,1598799985.373180,0.031355552,-0.002836168,-0.001455962,-0.942309856,0.102356389,-0.278745115
2020-08-30 17:06:25.4030,1598799985.403400,0.070877396,0.005524116,-0.015203731,-0.96142906,0.136978589,-0.287915647
2020-08-30 17:06:25.4330,1598799985.432990,0.024028398,-0.003613856,-0.018643185,-0.950656295,0.106995076,-0.287534177
2020-08-30 17:06:25.4630,1598799985.462880,-0.014176779,-0.00291451,-0.009386798,-0.953616738,0.109451756,-0.290616333
2020-08-30 17:06:25.4930,1598799985.493060,0.058037765,0.010395969,0.012697694,-0.96065104,0.129974835,-0.292691439
2020-08-30 17:06:25.5230,1598799985.522760,0.07985118,0.010779643,0.007473524,-0.9508394,0.115677275,-0.280240476
2020-08-30 17:06:25.5530,1598799985.552900,0.067244574,0.009896228,0.003323043,-0.949664354,0.110229932,-0.278363824
2020-08-30 17:06:25.5830,1598799985.582640,0.08185894,0.001693781,0.000194856,-0.949023128,0.116409659,-0.279447317
2020-08-30 17:06:25.6130,1598799985.612590,0.023076847,0.005132542,0.011387018,-0.950365722,0.103485465,-0.280851245
2020-08-30 17:06:25.6430,1598799985.642520,0.062127583,0.003930171,0.00886004,-0.948595703,0.123657569,-0.280164659
2020-08-30 17:06:25.6720,1598799985.672430,0.088639878,0.00199858,0.005991664,-0.95253247,0.119125701,-0.278882951
2020-08-30 17:06:25.7030,1598799985.702710,0.072850801,-0.010837015,-0.001707783,-0.952257335,0.115967102,-0.281706274
2020-08-30 17:06:25.7320,1598799985.732230,-0.008483474,-0.003442258,0.001719535,-0.955827951,0.096695252,-0.286375254
2020-08-30 17:06:25.7620,1598799985.762030,0.01651695,-0.007669051,0.00334197,-0.948335886,0.121109299,-0.281126291
2020-08-30 17:06:25.7920,1598799985.792080,0.044257235,-0.016361652,-0.000138152,-0.951112866,0.118774734,-0.273527503
2020-08-30 17:06:25.8220,1598799985.821890,0.041888885,-0.035006933,-0.004974777,-0.954850972,0.107696779,-0.275084108
2020-08-30 17:06:25.8520,1598799985.852080,0.025139999,-0.02845085,-0.011187552,-0.95854342,0.111313052,-0.282423735
2020-08-30 17:06:25.8820,1598799985.882120,0.058595426,-0.018672122,-0.013735265,-0.960114837,0.122116245,-0.286147058
2020-08-30 17:06:25.9120,1598799985.912180,0.075563759,-0.000262311,-0.01272022,-0.963044286,0.116882466,-0.290175557
2020-08-30 17:06:25.9420,1598799985.942150,0.060434341,0.018801883,-0.013006147,-0.960053265,0.101867817,-0.285643935
2020-08-30 17:06:25.9720,1598799985.972300,0.013031672,0.030397642,-0.013104496,-0.952652514,0.091308713,-0.279357463
2020-08-30 17:06:26.0020,1598799986.001840,0.032900453,0.031768724,-0.006897884,-0.951645494,0.107223645,-0.276855022
2020-08-30 17:06:26.0320,1598799986.031970,0.018360391,0.024598742,-0.00036437,-0.952087939,0.097396947,-0.270156503
2020-08-30 17:06:26.0620,1598799986.061830,0.051225662,0.020393698,0.012042688,-0.955795825,0.108703718,-0.274322122
2020-08-30 17:06:26.0920,1598799986.091630,0.087567158,0.013746536,0.006345541,-0.959655643,0.112548858,-0.277954161
2020-08-30 17:06:26.1230,1598799986.123240,0.072269164,0.014309442,0.005609291,-0.955947816,0.101913482,-0.285919279
2020-08-30 17:06:26.1520,1598799986.151660,0.0149598,0.004624499,0.013624568,-0.951553285,0.09207157,-0.286438018
2020-08-30 17:06:26.1820,1598799986.181680,0.003406742,-0.009666955,0.014727782,-0.946639657,0.094711289,-0.288223475
2020-08-30 17:06:26.2110,1598799986.211370,0.045762453,-0.01616258,-0.000955077,-0.950942636,0.106796227,-0.289200068
2020-08-30 17:06:26.2420,1598799986.241530,0.083340459,-0.027932599,-0.013071585,-0.950179517,0.103271477,-0.288544089
2020-08-30 17:06:26.2710,1598799986.271440,0.11818286,-0.039815448,-0.010303458,-0.949416757,0.10641478,-0.285476863
2020-08-30 17:06:26.3010,1598799986.301240,0.079687402,-0.042173985,-0.005227378,-0.951187015,0.096527122,-0.289291382
2020-08-30 17:06:26.3310,1598799986.331180,0.082110874,-0.037984788,-0.009301577,-0.953857303,0.101379409,-0.291534483
2020-08-30 17:06:26.3610,1598799986.360970,0.101322651,-0.023726003,-0.009150024,-0.957168221,0.095962517,-0.292160273
2020-08-30 17:06:26.3910,1598799986.391050,0.138159484,-0.015435805,-0.000869286,-0.957092226,0.097045928,-0.29069525
2020-08-30 17:06:26.4210,1598799986.420990,0.119852923,-0.007913662,0.014568659,-0.957535028,0.090988219,-0.28543067
2020-08-30 17:06:26.4510,1598799986.450830,0.127735883,-0.00988955,0.019341044,-0.960236192,0.096222036,-0.286986858
2020-08-30 17:06:26.4810,1598799986.480830,0.137873471,0.001738876,0.018958312,-0.960160077,0.089111462,-0.296615034
2020-08-30 17:06:26.5110,1598799986.510770,0.185842052,0.003694614,0.025379533,-0.957230806,0.094421558,-0.303389698
2020-08-30 17:06:26.5410,1598799986.540670,0.239265606,0.012451041,0.01541233,-0.953736663,0.08970657,-0.308897972
2020-08-30 17:06:26.5710,1598799986.570600,0.299252242,0.014524892,-0.000539948,-0.953934848,0.094406247,-0.305312276
2020-08-30 17:06:26.6010,1598799986.600620,0.29808709,0.013836597,-0.002389798,-0.948960721,0.087265156,-0.312407404
2020-08-30 17:06:26.6300,1598799986.630470,0.271256566,0.02319441,0.009112736,-0.957245648,0.084365949,-0.329970747
2020-08-30 17:06:26.6610,1598799986.660610,0.246100068,0.063048393,0.064100377,-0.980301559,0.060150228,-0.364226729
2020-08-30 17:06:26.6910,1598799986.690580,0.320267498,0.200207055,0.091436237,-1.006592155,0.056442343,-0.45529151
2020-08-30 17:06:26.7200,1598799986.720380,0.446115702,0.430130124,0.174498588,-1.046203732,0.077941969,-0.555221498
2020-08-30 17:06:26.7500,1598799986.750260,0.566851497,0.699609458,0.351987392,-1.094619691,0.115798973,-0.608337462
2020-08-30 17:06:26.7800,1598799986.780350,0.504356682,1.027369142,0.504789591,-1.108398378,0.057525665,-0.6640625
2020-08-30 17:06:26.8100,1598799986.810140,0.597726822,1.283289313,0.569040358,-1.091812015,0.069992095,-0.676757842
2020-08-30 17:06:26.8400,1598799986.840070,0.763885736,1.558963656,0.625034153,-1.102752686,0.054763809,-0.69354254
2020-08-30 17:06:26.8700,1598799986.870000,0.978692293,1.81020689,0.653058112,-1.086883247,0.078582749,-0.735839993
2020-08-30 17:06:26.9000,1598799986.899850,1.169301391,2.078651428,0.701695383,-1.113463998,0.140716545,-0.764740109
2020-08-30 17:06:26.9300,1598799986.929960,1.211509585,2.310506105,0.725237548,-1.08872962,0.122100823,-0.799789548
2020-08-30 17:06:26.9600,1598799986.959860,1.304156423,2.465142727,0.64634949,-1.045608044,0.123596154,-0.820984066
2020-08-30 17:06:26.9900,1598799986.989990,1.409380794,2.574277639,0.523515165,-0.963332593,0.180404626,-0.877914667
2020-08-30 17:06:27.0200,1598799987.019790,1.244889617,2.757569551,0.446534187,-0.941146433,0.112869263,-0.942032039
2020-08-30 17:06:27.0500,1598799987.049700,1.416774035,2.814308643,0.4349823,-0.881789684,0.185012814,-1.000946224
2020-08-30 17:06:27.0800,1598799987.079790,1.773072004,2.803895473,0.390511662,-0.752486885,0.158828765,-0.954452634
2020-08-30 17:06:27.1100,1598799987.109580,2.067275524,2.809447765,0.291962206,-0.688018531,0.162490899,-0.948318601
2020-08-30 17:06:27.1400,1598799987.139640,2.179082632,2.751338959,0.1942821,-0.584853917,0.121536329,-0.908950865
2020-08-30 17:06:27.1690,1598799987.169350,2.03963995,2.637850046,0.022964597,-0.437301457,0.010162473,-0.862930298
2020-08-30 17:06:27.1990,1598799987.199350,2.049823046,2.559695959,-0.157339036,-0.373214617,0.017089978,-0.844848692
2020-08-30 17:06:27.2300,1598799987.229500,2.256448746,2.509394646,-0.264164984,-0.335327089,0.036499172,-0.760940552
2020-08-30 17:06:27.2590,1598799987.259250,2.086754799,2.339935541,-0.387510329,-0.229995698,-0.067291141,-0.73336792
2020-08-30 17:06:27.2900,1598799987.289580,1.631842375,2.257424355,-0.413236082,-0.218185411,-0.232894659,-0.732238829
2020-08-30 17:06:27.3190,1598799987.319260,1.69586587,2.095817566,-0.410142809,-0.168731712,-0.237884283,-0.624923766
2020-08-30 17:06:27.3490,1598799987.349140,1.876358986,1.825529933,-0.311664164,-0.095901594,-0.226272166,-0.530471921
2020-08-30 17:06:27.3820,1598799987.382220,1.571875453,1.596952558,-0.304202825,-0.019683957,-0.361266613,-0.464309871
2020-08-30 17:06:27.4880,1598799987.487740,1.339643002,1.376348376,-0.22406733,0.013168171,-0.376754284,-0.492263973
2020-08-30 17:06:27.4900,1598799987.489990,0.974788904,1.310391426,-0.391633689,0.036987036,-0.408171952,-0.51724273
2020-08-30 17:06:27.4980,1598799987.497920,0.769199789,1.297444582,-0.454607785,0.057616949,-0.431914747,-0.500412166
2020-08-30 17:06:27.5010,1598799987.501270,0.953772843,1.221798778,-0.368590534,0.085098028,-0.351149976,-0.383743525
2020-08-30 17:06:27.5320,1598799987.531950,0.778826058,1.156390071,-0.407921493,0.167220891,-0.418319285,-0.412475765
2020-08-30 17:06:27.5590,1598799987.559320,0.713385284,1.022217989,-0.534559786,0.225280643,-0.429992437,-0.446838439
2020-08-30 17:06:27.5890,1598799987.588540,0.277100593,0.923288345,-0.494969994,0.276611209,-0.555663824,-0.514801145
2020-08-30 17:06:27.6180,1598799987.618380,-0.028475825,0.884192884,-0.531880558,0.349486947,-0.604537487,-0.612442315
2020-08-30 17:06:27.6490,1598799987.649320,0.06626986,0.7487275,-0.47824356,0.456252784,-0.576629221,-0.661178827
2020-08-30 17:06:27.6790,1598799987.678860,0.143161699,0.534236789,-0.329839289,0.586013436,-0.638946056,-0.7335971
2020-08-30 17:06:27.7090,1598799987.709030,0.08742521,0.407052189,-0.178734452,0.644775033,-0.694137096,-0.767059624
2020-08-30 17:06:27.7380,1598799987.737980,0.253199786,0.340199798,-0.140335083,0.66509974,-0.699202955,-0.756729424
2020-08-30 17:06:27.7680,1598799987.767960,0.502104998,0.184576645,-0.105171114,0.671798289,-0.633452952,-0.653030694
2020-08-30 17:06:27.7980,1598799987.797950,0.186297193,0.124884643,-0.111095123,0.623855233,-0.688262463,-0.592315972
2020-08-30 17:06:27.8280,1598799987.827830,0.08257027,0.09441369,-0.10522984,0.578643382,-0.568770885,-0.512375236
2020-08-30 17:06:27.8580,1598799987.857870,0.140046611,0.036348119,-0.105797417,0.542174995,-0.52687031,-0.474640191
2020-08-30 17:06:27.8880,1598799987.888080,0.05344807,0.05601028,-0.097710632,0.505676091,-0.538711369,-0.494232297
2020-08-30 17:06:27.9180,1598799987.917920,-0.013940291,0.111580163,-0.131750464,0.484970093,-0.564437807,-0.518035948
2020-08-30 17:06:27.9480,1598799987.947910,-0.12593767,0.129591733,-0.155554265,0.499710083,-0.589996219,-0.520309508
2020-08-30 17:06:27.9780,1598799987.978020,-0.154878512,0.114530586,-0.170236036,0.535614014,-0.606170595,-0.534133971
2020-08-30 17:06:28.0080,1598799988.007820,-0.017131291,0.086434811,-0.152956411,0.575790346,-0.602142274,-0.56022644
2020-08-30 17:06:28.0380,1598799988.037930,0.009253179,0.0434964,-0.13434118,0.592193604,-0.63420099,-0.551849425
2020-08-30 17:06:28.0680,1598799988.067710,-0.165839285,-0.022125842,-0.118064158,0.613708615,-0.666244566,-0.536911011
2020-08-30 17:06:28.0980,1598799988.097690,-0.133986548,-0.045756605,-0.12335898,0.604064941,-0.635681093,-0.537597716
2020-08-30 17:06:28.1280,1598799988.127540,0.131972969,-0.057353381,-0.125100672,0.589889646,-0.576416075,-0.559890747
2020-08-30 17:06:28.1570,1598799988.157410,0.011838309,-0.027718969,-0.131195471,0.58125335,-0.617462337,-0.540817082
2020-08-30 17:06:28.1870,1598799988.187430,-0.195348963,-0.049533591,-0.124011114,0.587204337,-0.595077813,-0.510696113
2020-08-30 17:06:28.2170,1598799988.217450,-0.184121087,-0.065608025,-0.11278899,0.589111567,-0.557373345,-0.51727283
2020-08-30 17:06:28.2490,1598799988.249320,-0.113173403,-0.101149023,-0.09726613,0.587372065,-0.537231684,-0.525405705
2020-08-30 17:06:28.2770,1598799988.277390,-0.163100228,-0.093193986,-0.055007432,0.597809255,-0.562424064,-0.560546517
2020-08-30 17:06:28.3070,1598799988.307310,-0.187101692,-0.117834166,0.025319479,0.614075184,-0.552048206,-0.57185322
2020-08-30 17:06:28.3370,1598799988.337080,-0.236493737,-0.119361229,0.075326152,0.608460307,-0.568329573,-0.590239942
2020-08-30 17:06:28.3670,1598799988.366990,-0.16229941,-0.119111687,0.126549467,0.597214699,-0.551301003,-0.611373246
2020-08-30 17:06:28.3970,1598799988.397260,-0.104708545,-0.100622207,0.161407143,0.574204624,-0.56492728,-0.630828023
2020-08-30 17:06:28.4270,1598799988.427360,-0.12805967,-0.074864686,0.177349761,0.55484134,-0.589478731,-0.647582114
2020-08-30 17:06:28.4570,1598799988.457000,-0.172222614,-0.086515576,0.199124455,0.5387128,-0.584916413,-0.637633443
2020-08-30 17:06:28.4870,1598799988.486960,-0.16699855,-0.088101089,0.201094478,0.510575473,-0.584778965,-0.635375202
2020-08-30 17:06:28.5170,1598799988.516750,-0.054057881,-0.081431687,0.172541499,0.484742463,-0.569031954,-0.635832906
2020-08-30 17:06:28.5470,1598799988.547020,-0.079132341,-0.080466069,0.124615915,0.465501249,-0.591142118,-0.621748924
2020-08-30 17:06:28.5770,1598799988.576590,-0.165303186,-0.101958446,0.0852357,0.474732876,-0.587678492,-0.613921165
2020-08-30 17:06:28.6070,1598799988.606770,-0.225895688,-0.121783197,0.049638897,0.478059351,-0.582368493,-0.619048059
2020-08-30 17:06:28.6390,1598799988.638540,-0.180878684,-0.161829278,0.044049092,0.507020772,-0.562867999,-0.615660429
2020-08-30 17:06:28.6670,1598799988.666720,-0.134959936,-0.193264306,0.042737961,0.534196794,-0.56283772,-0.634733856
2020-08-30 17:06:28.6960,1598799988.696380,-0.20310995,-0.207849234,0.044247117,0.549928665,-0.577028394,-0.652922273
2020-08-30 17:06:28.7260,1598799988.725920,-0.246408165,-0.18691887,0.063623227,0.548555374,-0.572527111,-0.658842683
2020-08-30 17:06:28.7560,1598799988.755800,-0.17374967,-0.178081051,0.105896711,0.541902721,-0.556093633,-0.677687168
2020-08-30 17:06:28.7860,1598799988.786020,-0.100609139,-0.183369905,0.161760166,0.517015815,-0.554339051,-0.685728431
2020-08-30 17:06:28.8160,1598799988.815900,-0.09158209,-0.170096755,0.189778358,0.490007997,-0.565691769,-0.69734031
2020-08-30 17:06:28.8460,1598799988.845790,-0.217571452,-0.152267158,0.192673624,0.472796112,-0.596575737,-0.717725933
2020-08-30 17:06:28.8760,1598799988.875660,-0.130086347,-0.121426731,0.198471144,0.452563047,-0.570773244,-0.726560771
2020-08-30 17:06:28.9060,1598799988.906080,0.080218703,-0.07696566,0.181608379,0.430681765,-0.555804133,-0.735716164
2020-08-30 17:06:28.9360,1598799988.936040,0.141094819,-0.03995575,0.141299978,0.423372656,-0.569445372,-0.720137
2020-08-30 17:06:28.9660,1598799988.965720,-0.05464058,-0.015705006,0.101812258,0.421206117,-0.596881032,-0.702177227
2020-08-30 17:06:28.9970,1598799988.996980,-0.178518057,-0.024457131,0.080349386,0.427675813,-0.586566091,-0.689115703
2020-08-30 17:06:29.0260,1598799989.026060,-0.01972441,-0.006674227,0.043349057,0.418154448,-0.555896044,-0.692350507
2020-08-30 17:06:29.0560,1598799989.056000,0.201138988,0.012632183,-0.001276883,0.416079432,-0.54169029,-0.702436447
2020-08-30 17:06:29.0860,1598799989.086280,0.024360493,0.020020325,-0.036817186,0.423449486,-0.606463969,-0.703336656
2020-08-30 17:06:29.1160,1598799989.115590,-0.19013077,0.002998906,-0.049859028,0.442706078,-0.616672158,-0.688871384
2020-08-30 17:06:29.1460,1598799989.145660,0.05098651,-0.015920145,-0.055555813,0.441180289,-0.538364172,-0.659162462
2020-08-30 17:06:29.1760,1598799989.176160,0.152540296,-0.016478965,-0.075397469,0.448550463,-0.577670991,-0.690534413
2020-08-30 17:06:29.2060,1598799989.205650,-0.040207315,-0.009536503,-0.095696256,0.450213581,-0.626392186,-0.695783436
2020-08-30 17:06:29.2370,1598799989.237140,-0.080640227,-0.032220423,-0.107530698,0.460833848,-0.576709688,-0.672940969
2020-08-30 17:06:29.2650,1598799989.265310,-0.064131558,-0.044220138,-0.114169478,0.460406542,-0.565479159,-0.682416737
2020-08-30 17:06:29.2960,1598799989.295500,0.019999299,-0.034409985,-0.123868465,0.457461685,-0.568881989,-0.708844841
2020-08-30 17:06:29.3250,1598799989.325440,0.113792375,-0.021856552,-0.132619917,0.454989731,-0.554111421,-0.716321707
2020-08-30 17:06:29.3550,1598799989.355210,0.041277692,-0.004624214,-0.151457399,0.456836045,-0.570850313,-0.708081961
2020-08-30 17:06:29.3850,1598799989.385180,0.049194206,-0.012343031,-0.142006159,0.462268203,-0.53371042,-0.687162161
2020-08-30 17:06:29.4160,1598799989.416270,0.05066986,0.001858098,-0.147506863,0.46750176,-0.542606056,-0.692426622
2020-08-30 17:06:29.4450,1598799989.445160,0.119193532,0.022121867,-0.141951501,0.480197191,-0.535297155,-0.68629247
2020-08-30 17:06:29.4750,1598799989.474970,0.064336136,0.047795717,-0.127729267,0.497149646,-0.563541174,-0.685285449
2020-08-30 17:06:29.5050,1598799989.504980,-0.026230779,0.048544198,-0.10981527,0.501132309,-0.555423498,-0.663434803
2020-08-30 17:06:29.5350,1598799989.534780,0.014815456,0.050890893,-0.081947416,0.502856582,-0.540393651,-0.653257132
2020-08-30 17:06:29.5650,1598799989.564710,0.0864987,0.050318126,-0.058135372,0.510653913,-0.535709262,-0.652494192
2020-08-30 17:06:29.5950,1598799989.594830,0.081864268,0.058074191,-0.046269942,0.510623515,-0.541248381,-0.65606463
2020-08-30 17:06:29.6240,1598799989.624440,-0.003950774,0.058692571,-0.046720967,0.512912303,-0.547855318,-0.648328424
2020-08-30 17:06:29.6550,1598799989.654800,-0.000757643,0.057438314,-0.04043781,0.513491929,-0.538440406,-0.648374379
2020-08-30 17:06:29.6860,1598799989.685500,0.028155763,0.052117985,-0.034696091,0.509158283,-0.543536663,-0.657316089
2020-08-30 17:06:29.7160,1598799989.715780,-0.01710812,0.046418108,-0.040509582,0.512301594,-0.560122907,-0.651456773
2020-08-30 17:06:29.7440,1598799989.744080,-0.018410141,0.040482458,-0.043419201,0.509493947,-0.555560529,-0.651609361
2020-08-30 17:06:29.7740,1598799989.774240,-0.001596273,0.034135789,-0.051798001,0.510653436,-0.546481252,-0.654783309
2020-08-30 17:06:29.8040,1598799989.803990,0.01110807,0.02776413,-0.057856672,0.520174801,-0.544222891,-0.654661357
2020-08-30 17:06:29.8350,1598799989.834550,0.008428398,0.024580808,-0.056171749,0.524401426,-0.547366083,-0.654157817
2020-08-30 17:06:29.8640,1598799989.863940,-0.034651428,0.034808859,-0.058439959,0.524065495,-0.554369688,-0.662901223
2020-08-30 17:06:29.8940,1598799989.894110,-0.008205973,0.026152562,-0.046349227,0.522646427,-0.531328738,-0.661482215
2020-08-30 17:06:29.9240,1598799989.923900,-0.001040738,0.018525049,-0.0253573,0.523455083,-0.528551698,-0.658705115
2020-08-30 17:06:29.9540,1598799989.954220,-0.061351482,0.023333697,-0.0152351,0.523485601,-0.542940676,-0.67313993
2020-08-30 17:06:29.9840,1598799989.983830,-0.022343364,0.020408478,0.001271629,0.513048649,-0.532473207,-0.676008582
2020-08-30 17:06:30.0150,1598799990.015180,0.018225636,0.014215253,0.026624754,0.512285531,-0.528200567,-0.667875767
2020-08-30 17:06:30.0440,1598799990.043860,0.00012546,0.015836231,0.035299316,0.510378301,-0.539034426,-0.670744359
2020-08-30 17:06:30.0740,1598799990.074400,-0.016015425,0.021359449,0.039081231,0.507173955,-0.539324343,-0.675108373
2020-08-30 17:06:30.1040,1598799990.103660,-0.031345114,0.024536733,0.028647024,0.505953193,-0.54176569,-0.6661973
2020-08-30 17:06:30.1330,1598799990.133450,0.005797993,0.020830277,0.02585407,0.505068183,-0.53862232,-0.662977755
2020-08-30 17:06:30.1640,1598799990.163960,0.014007187,0.019702878,0.013591622,0.501268685,-0.545473456,-0.662703097
2020-08-30 17:06:30.1940,1598799990.193720,-0.041474447,0.008904156,0.003940611,0.504457653,-0.555284798,-0.664366364
2020-08-30 17:06:30.2280,1598799990.228020,-0.056027289,-0.00596303,0.008206842,0.502534926,-0.547472179,-0.665358245
2020-08-30 17:06:30.2530,1598799990.253320,-0.043041717,-0.017959194,0.00268864,0.498094559,-0.548036635,-0.673826873
2020-08-30 17:06:30.2830,1598799990.283290,0.020621948,-0.020153418,0.002078567,0.496797502,-0.542985857,-0.677946806
2020-08-30 17:06:30.3130,1598799990.313140,0.018863726,-0.023765862,-0.010472055,0.4998492,-0.554597795,-0.679594815
2020-08-30 17:06:30.3430,1598799990.343410,-0.03981423,-0.031186406,-0.011798309,0.503694415,-0.56146431,-0.675810575
2020-08-30 17:06:30.3730,1598799990.372890,0.002050926,-0.031042684,-0.015719129,0.505311787,-0.54988277,-0.682234645
2020-08-30 17:06:30.4030,1598799990.403060,0.069912001,-0.018226221,-0.018869534,0.501161277,-0.545091391,-0.686598659
2020-08-30 17:06:30.4330,1598799990.432750,0.027972274,-0.010430393,-0.024642564,0.501664639,-0.561830044,-0.673659384
2020-08-30 17:06:30.4630,1598799990.462700,-0.007795313,-0.012925375,-0.026139393,0.505708158,-0.555390835,-0.668868124
2020-08-30 17:06:30.4930,1598799990.492910,0.026405536,0.006055462,-0.030129436,0.497895658,-0.544022977,-0.67497164
2020-08-30 17:06:30.5230,1598799990.522830,0.038228638,0.016687822,-0.038624749,0.499665678,-0.536180019,-0.673598349
2020-08-30 17:06:30.5540,1598799990.553520,-0.054281589,0.024435665,-0.03343166,0.499970913,-0.547822475,-0.67156893
2020-08-30 17:06:30.5830,1598799990.582670,0.013427417,0.009374204,-0.01640008,0.50152725,-0.520249903,-0.662413657
2020-08-30 17:06:30.6120,1598799990.612340,0.031437311,0.013234411,-0.017769877,0.502473295,-0.540544033,-0.669234335
2020-08-30 17:06:30.6420,1598799990.642460,0.030200008,0.014880556,-0.012904415,0.514405668,-0.544892788,-0.671156943
2020-08-30 17:06:30.6780,1598799990.678350,-0.030759219,0.011180004,-0.00504984,0.516190886,-0.55168283,-0.663024068
2020-08-30 17:06:30.7020,1598799990.702340,-0.099588081,-0.002741537,0.003286825,0.525147855,-0.556245327,-0.662566245
2020-08-30 17:06:30.7320,1598799990.732380,0.032904979,-0.026623877,0.011987866,0.523499846,-0.521851957,-0.657546163
2020-08-30 17:06:30.7620,1598799990.761730,0.054013193,-0.012129757,0.018374449,0.516526401,-0.540742099,-0.672957659
2020-08-30 17:06:30.7920,1598799990.791840,-0.071902923,-0.002318494,0.020110868,0.516343236,-0.555299044,-0.6724388
2020-08-30 17:06:30.8220,1598799990.821680,-0.058734659,-0.018304652,0.025288053,0.50723356,-0.524918497,-0.659102857
2020-08-30 17:06:30.8520,1598799990.851530,-0.016457777,-0.016004745,0.034291402,0.501511514,-0.52952677,-0.669921279
2020-08-30 17:06:30.8820,1598799990.881710,-0.000452179,-0.010616592,0.03007522,0.498215616,-0.532959819,-0.679870069
2020-08-30 17:06:30.9120,1598799990.912020,-0.036808323,0.00485371,0.025177628,0.495057106,-0.550049663,-0.683394849
2020-08-30 17:06:30.9420,1598799990.942090,-0.016835414,0.005447417,0.025618188,0.497696817,-0.53735441,-0.679305494
2020-08-30 17:06:30.9720,1598799990.971570,-0.027098704,0.005654966,0.020585995,0.499543011,-0.541291058,-0.674346447
2020-08-30 17:06:31.0020,1598799991.001970,0.018140946,-0.008015173,0.011765854,0.502777815,-0.538040876,-0.674468577
2020-08-30 17:06:31.0330,1598799991.032840,0.002178225,-0.00511206,-0.001216867,0.505661726,-0.547959089,-0.681045055
2020-08-30 17:06:31.0620,1598799991.061800,-0.040785752,-0.007427591,-0.011676698,0.504578292,-0.549698591,-0.684981883
2020-08-30 17:06:31.0920,1598799991.091810,-0.051406704,-0.019056771,-0.009003854,0.505509079,-0.541001022,-0.68086201
2020-08-30 17:06:31.1220,1598799991.121840,-0.021887697,-0.034255389,-0.004668932,0.505142689,-0.543991506,-0.686278999
2020-08-30 17:06:31.1520,1598799991.151600,0.07461381,-0.036691781,0.006238443,0.500778615,-0.523559868,-0.683212042
2020-08-30 17:06:31.1810,1598799991.181370,0.004160683,-0.031996228,0.003607564,0.500915825,-0.549896479,-0.683212161
2020-08-30 17:06:31.2170,1598799991.217010,-0.076402336,-0.037879594,0.005814411,0.502472103,-0.539566159,-0.670700014
2020-08-30 17:06:31.2410,1598799991.241460,-0.011821214,-0.049748994,0.016420621,0.50213623,-0.513976991,-0.663452208
2020-08-30 17:06:31.2710,1598799991.271150,-0.024497859,-0.055945903,0.022007516,0.506744325,-0.52117914,-0.64604187
2020-08-30 17:06:31.3010,1598799991.301460,-0.133985206,-0.075793378,0.039827637,0.51512143,-0.520751894,-0.627166808
2020-08-30 17:06:31.3310,1598799991.331010,-0.260701358,-0.087147184,0.054777391,0.521255821,-0.511459649,-0.617873967
2020-08-30 17:06:31.3610,1598799991.360880,-0.244156986,-0.090602197,0.06515725,0.517883599,-0.488739312,-0.633529484
2020-08-30 17:06:31.3910,1598799991.391180,-0.254143029,-0.101633802,0.063506089,0.504791707,-0.470291555,-0.631789863
2020-08-30 17:06:31.4210,1598799991.421000,-0.481897116,-0.154744253,0.036032841,0.499069512,-0.470138788,-0.59930402
2020-08-30 17:06:31.4510,1598799991.450740,-0.669828355,-0.262431979,0.011100157,0.497223169,-0.426239252,-0.556152225
2020-08-30 17:06:31.4810,1598799991.480630,-0.901682079,-0.427689344,-0.03812027,0.477920711,-0.393081784,-0.539962709
2020-08-30 17:06:31.5110,1598799991.510810,-1.285155773,-0.533105075,-0.123251371,0.433014065,-0.378723234,-0.562637269
2020-08-30 17:06:31.5410,1598799991.540530,-1.453190327,-0.780835509,-0.164903089,0.451568753,-0.327941984,-0.584197938
2020-08-30 17:06:31.5700,1598799991.570470,-1.557460189,-0.938374519,-0.186190918,0.403427243,-0.267974913,-0.641723573
2020-08-30 17:06:31.6010,1598799991.600540,-1.742957115,-1.023842692,-0.248491481,0.357437313,-0.250335813,-0.706985414
2020-08-30 17:06:31.6300,1598799991.630270,-1.570040703,-1.159358621,-0.231827125,0.369201958,-0.157699764,-0.832580507
2020-08-30 17:06:31.6610,1598799991.660840,-1.498051763,-1.192198157,-0.175829262,0.285614252,-0.15472424,-0.884292543
2020-08-30 17:06:31.6910,1598799991.690740,-1.225502253,-1.201868176,-0.240913302,0.297943383,-0.095001355,-0.899246156
2020-08-30 17:06:31.7200,1598799991.719930,-1.083712339,-1.329968214,-0.275112361,0.292267084,-0.139831662,-0.906433105
2020-08-30 17:06:31.7500,1598799991.749830,-1.124289393,-1.439628124,-0.216825709,0.20613116,-0.087081954,-0.881698549
2020-08-30 17:06:31.7800,1598799991.779980,-1.306725144,-1.370743513,-0.246790603,0.147735775,-0.112472594,-0.98085022
2020-08-30 17:06:31.8100,1598799991.810200,-0.947804332,-1.447040796,-0.191478372,0.153747708,-0.030334502,-1.001098633
2020-08-30 17:06:31.8400,1598799991.839880,-0.839471757,-1.525615454,-0.112400457,0.091369748,-0.028381355,-0.957794189
2020-08-30 17:06:31.8700,1598799991.869750,-1.010475397,-1.483089685,-0.229015365,0.045654386,-0.094024656,-0.997161865
2020-08-30 17:06:31.9000,1598799991.900050,-0.962119102,-1.460484028,-0.340368778,0.042785678,-0.108947724,-0.989089966
2020-08-30 17:06:31.9300,1598799991.929950,-0.786357403,-1.580514312,-0.348655134,-0.025405873,0.023544351,-0.978881836
2020-08-30 17:06:31.9600,1598799991.959770,-0.711403787,-1.557510138,-0.412299097,-0.115676869,0.054061919,-0.99067688
2020-08-30 17:06:31.9900,1598799991.989990,-0.872529268,-1.463541865,-0.604154289,-0.109909028,-0.068542466,-1.009262085
2020-08-30 17:06:32.0200,1598799992.019780,-0.443055451,-1.58075726,-0.632413685,-0.171127304,0.044281028,-1.023651063
2020-08-30 17:06:32.0500,1598799992.049880,-0.608171105,-1.593805432,-0.532470405,-0.28956601,0.065063499,-1.05317688
2020-08-30 17:06:32.0800,1598799992.079850,-0.911599457,-1.612914562,-0.429422528,-0.31199643,0.072311431,-1.071884155
2020-08-30 17:06:32.1100,1598799992.109500,-0.878080666,-1.627161741,-0.456250101,-0.312652558,0.112075821,-1.024917603
2020-08-30 17:06:32.1400,1598799992.139810,-0.966298938,-1.556285858,-0.670452058,-0.394119233,0.152618438,-0.975799561
2020-08-30 17:06:32.1690,1598799992.169310,-0.967874467,-1.639440536,-0.585879862,-0.375869781,0.138031065,-0.868942261
2020-08-30 17:06:32.1990,1598799992.199320,-1.001147151,-1.862589955,-0.502235413,-0.34072873,0.127288833,-0.855133057
2020-08-30 17:06:32.2350,1598799992.235240,-1.42926681,-2.013390779,-0.592609107,-0.400497377,0.018127456,-0.755432129
2020-08-30 17:06:32.2600,1598799992.260000,-1.775566936,-2.030106544,-0.767407894,-0.504089415,0.150207609,-0.738952577
2020-08-30 17:06:32.2890,1598799992.289350,-1.240078211,-1.995283961,-0.868279576,-0.529769957,0.280319303,-0.713058472
2020-08-30 17:06:32.3190,1598799992.318920,-0.344207704,-2.039150476,-1.071218491,-0.543914795,0.326339722,-0.701660156
2020-08-30 17:06:32.3490,1598799992.348880,-0.471634626,-2.056593418,-1.082190275,-0.623138309,0.169113159,-0.727478027
2020-08-30 17:06:32.3790,1598799992.379000,-1.056773901,-2.097355366,-1.125585914,-0.774871588,0.139968812,-0.729354918
2020-08-30 17:06:32.4100,1598799992.409510,-1.502478719,-2.250568867,-1.247836113,-0.947845161,0.176254213,-0.639755428
2020-08-30 17:06:32.4390,1598799992.438670,-1.707968712,-2.034065247,-1.374246597,-1.156371772,0.247878969,-0.55706805
2020-08-30 17:06:32.4690,1598799992.468680,-1.10357666,-1.690512419,-1.325903416,-1.254699588,0.323196411,-0.510574341
2020-08-30 17:06:32.4980,1598799992.498480,-0.266339779,-1.306379557,-1.128682494,-1.236785829,0.400161743,-0.4325867
2020-08-30 17:06:32.5280,1598799992.528120,-0.144932672,-1.066329837,-0.755269468,-1.105300844,0.245849624,-0.397354186
2020-08-30 17:06:32.5580,1598799992.558040,-0.081318535,-0.940731227,-0.379716873,-1.032897651,0.205169663,-0.344055384
2020-08-30 17:06:32.5890,1598799992.588540,0.662731946,-0.761733592,-0.219917133,-1.087310731,0.246307373,-0.350189239
2020-08-30 17:06:32.6180,1598799992.618200,1.117227316,-0.450140357,0.190300882,-1.124557436,0.152877823,-0.34550485
2020-08-30 17:06:32.6490,1598799992.648770,1.290201426,-0.291030258,0.258546114,-1.108795047,0.116348296,-0.354370147
2020-08-30 17:06:32.6890,1598799992.688550,0.761131227,-0.330018461,0.139547527,-0.996734321,-0.029174834,-0.383774012
2020-08-30 17:06:32.7080,1598799992.708150,0.359821588,-0.384771645,-0.272067994,-0.947906137,0.066925034,-0.353393763
2020-08-30 17:06:32.7400,1598799992.739910,-0.231484607,-0.499287844,-0.281099468,-0.847808301,-0.084777884,-0.296310782
2020-08-30 17:06:32.7760,1598799992.776140,-0.684810221,-0.417573452,-0.370243996,-0.891524732,0.029006913,-0.346130759
2020-08-30 17:06:32.7980,1598799992.798120,-0.989432991,-0.374509186,-0.359322369,-0.890334845,0.128646843,-0.305267558
2020-08-30 17:06:32.8280,1598799992.828040,-1.111750126,-0.257942706,-0.359296352,-0.943298042,0.214950569,-0.25779748
2020-08-30 17:06:32.8580,1598799992.858090,-0.686527967,-0.192893848,-0.381434113,-0.9773404,0.259735122,-0.283172801
2020-08-30 17:06:32.8890,1598799992.889370,-0.495480835,0.038721927,-0.381585866,-1.02018714,0.20771791,-0.255539164
2020-08-30 17:06:32.9200,1598799992.919990,-0.363096148,0.106808662,-0.310446113,-0.991515815,0.129486106,-0.270950556
2020-08-30 17:06:32.9480,1598799992.948030,-0.415237933,0.122659892,-0.303351343,-0.992721438,0.084991492,-0.26033029
2020-08-30 17:06:32.9780,1598799992.977850,-0.464366585,0.148305312,-0.198026881,-0.985794187,0.061355628,-0.24478136
2020-08-30 17:06:33.0080,1598799993.008490,-0.49255082,0.137311354,-0.041425366,-0.989395261,0.078979507,-0.271102786
2020-08-30 17:06:33.0380,1598799993.037860,-0.211630732,0.119147301,0.108667523,-0.995361209,0.118911758,-0.316375792
2020-08-30 17:06:33.0700,1598799993.070150,0.051842984,0.131569311,0.137404487,-0.997100711,0.143188484,-0.304138243
2020-08-30 17:06:33.0980,1598799993.097740,-0.020204045,0.222971007,0.251880229,-0.988449037,0.097778358,-0.329284757
2020-08-30 17:06:33.1280,1598799993.127610,0.097811542,0.301906765,0.263901949,-0.980819583,0.110397361,-0.291458189
2020-08-30 17:06:33.1590,1598799993.159350,0.710107982,0.326699674,0.229621544,-0.964477479,0.218215957,-0.231079131
2020-08-30 17:06:33.1880,1598799993.187920,0.925683916,0.293647438,0.260210305,-0.952819765,0.17205815,-0.342498839
2020-08-30 17:06:33.2250,1598799993.224720,0.738277555,0.301167488,0.189929128,-0.955825567,0.075820923,-0.290878564
2020-08-30 17:06:33.2470,1598799993.247270,1.023535132,0.327929318,0.069446556,-0.973205507,0.135696448,-0.28376776
2020-08-30 17:06:33.2770,1598799993.277140,0.956461012,0.274639219,-0.001916498,-0.94241327,0.057785057,-0.308014005
2020-08-30 17:06:33.3070,1598799993.307360,0.452343524,0.296287119,0.096900381,-0.942779422,-0.008224458,-0.337631255
2020-08-30 17:06:33.3370,1598799993.337150,0.436724603,0.324939549,0.001446351,-0.935806572,0.093521148,-0.287841558
2020-08-30 17:06:33.3670,1598799993.367100,0.661537766,0.293510318,-0.048473064,-0.926254153,0.11148072,-0.289352477
2020-08-30 17:06:33.3970,1598799993.397160,0.5232023,0.265039712,-0.100253664,-0.931274772,0.009933561,-0.291747779
2020-08-30 17:06:33.4280,1598799993.428400,0.20821847,0.2172966,-0.142090246,-0.914154351,-0.004409716,-0.296157569
2020-08-30 17:06:33.4620,1598799993.462170,0.017581414,0.11806491,-0.11722222,-0.904785812,0.015548766,-0.303862989
2020-08-30 17:06:33.4870,1598799993.486510,0.256409436,0.042372279,-0.129510537,-0.940827608,0.083114751,-0.319274098
2020-08-30 17:06:33.5160,1598799993.516250,0.177496508,-0.010466435,-0.057170261,-0.916093409,0.028366197,-0.317183495
2020-08-30 17:06:33.5460,1598799993.546320,0.044646591,-0.064090602,-0.004918737,-0.922075033,0.022049058,-0.345824063
2020-08-30 17:06:33.5770,1598799993.576610,0.211263791,-0.097218506,-0.0157014,-0.948229015,0.090393212,-0.350660801
2020-08-30 17:06:33.6060,1598799993.606370,0.058046021,-0.033404373,-0.010309069,-0.969072223,0.036911119,-0.364165038
2020-08-30 17:06:33.6370,1598799993.637120,-0.036907922,-0.034911193,0.030365124,-0.944444537,0.046341062,-0.364851654
2020-08-30 17:06:33.6700,1598799993.669850,-0.083907388,-0.060317125,0.040873501,-0.927858055,0.03167738,-0.349364072
2020-08-30 17:06:33.6960,1598799993.696180,-0.10468404,-0.082279861,0.027256224,-0.918718398,0.048812963,-0.32937485
2020-08-30 17:06:33.7260,1598799993.725870,0.040134396,-0.109993473,0.008417688,-0.922487855,0.051437564,-0.335050792
2020-08-30 17:06:33.7560,1598799993.755850,0.13393411,-0.095842674,0.001978014,-0.937762082,0.041595649,-0.349439621
2020-08-30 17:06:33.7860,1598799993.785670,0.11213056,-0.130549073,-0.003114636,-0.925509453,0.03468338,-0.343488604
2020-08-30 17:06:33.8160,1598799993.815610,0.105536841,-0.139107049,0.019960515,-0.936953843,0.040527519,-0.347547114
2020-08-30 17:06:33.8460,1598799993.845590,0.18353869,-0.13052547,0.010312299,-0.948108137,0.069244541,-0.342954218
2020-08-30 17:06:33.8750,1598799993.875460,0.256683469,-0.134864151,0.02725379,-0.946002424,0.047470283,-0.342359185
2020-08-30 17:06:33.9060,1598799993.905610,0.153333113,-0.144804969,0.083592527,-0.945971847,0.033310156,-0.343350917
2020-08-30 17:06:33.9350,1598799993.935460,0.14141041,-0.139136314,0.094088018,-0.953220069,0.049087737,-0.344769806
2020-08-30 17:06:33.9660,1598799993.965840,0.162139118,-0.099488541,0.071273915,-0.955417454,0.047043066,-0.325452119
2020-08-30 17:06:33.9960,1598799993.995530,0.251354486,-0.070872918,0.071636505,-0.958896279,0.059601072,-0.321317106
2020-08-30 17:06:34.0260,1598799994.025670,0.202039406,-0.061998159,0.072721273,-0.951404333,0.037368983,-0.309964418
2020-08-30 17:06:34.0550,1598799994.055380,0.105326183,-0.066203333,0.083149128,-0.952335,0.024811011,-0.293591887
2020-08-30 17:06:34.0860,1598799994.085670,0.134334385,-0.06703832,0.078888752,-0.956836522,0.041412584,-0.284314424
2020-08-30 17:06:34.1150,1598799994.115260,0.159517512,-0.056897625,0.077427626,-0.956562221,0.035385374,-0.295300394
2020-08-30 17:06:34.1450,1598799994.145210,0.182119489,-0.049521469,0.088044897,-0.954151332,0.032974448,-0.310666025
2020-08-30 17:06:34.1750,1598799994.175170,0.139684156,-0.021896722,0.070274323,-0.961262107,0.03154017,-0.322125196
2020-08-30 17:06:34.2050,1598799994.205090,0.143584087,-0.00300914,0.042754963,-0.961201131,0.036560349,-0.328884929
2020-08-30 17:06:34.2350,1598799994.235260,0.21805805,0.020450868,0.03414765,-0.967838883,0.049011484,-0.342526108
2020-08-30 17:06:34.2650,1598799994.264980,0.123088665,0.067105763,0.025893275,-0.963291943,0.018493917,-0.341671467
2020-08-30 17:06:34.2950,1598799994.294900,0.022801477,0.083403245,0.024465516,-0.95047456,0.018936448,-0.335293263
2020-08-30 17:06:34.3250,1598799994.324810,0.011731249,0.089213245,0.000584629,-0.9449507,0.020050313,-0.321179092
2020-08-30 17:06:34.3550,1598799994.354730,0.131747127,0.083338089,-0.02296949,-0.942234576,0.044754259,-0.314892471
2020-08-30 17:06:34.3850,1598799994.384870,0.09322691,0.07029672,-0.021220839,-0.94455421,0.0202334,-0.319622546
2020-08-30 17:06:34.4150,1598799994.414620,-0.037863199,0.075892732,-0.017186608,-0.952534497,0.017166346,-0.31528908
2020-08-30 17:06:34.4450,1598799994.444600,-0.015267611,0.066669144,-0.031924542,-0.947636127,0.045334097,-0.307354718
2020-08-30 17:06:34.4750,1598799994.474780,0.113857619,0.067064837,-0.034061175,-0.950031757,0.050186347,-0.318661511
2020-08-30 17:06:34.5050,1598799994.504550,0.121898241,0.055770952,-0.03597654,-0.947453022,0.029724326,-0.324169993
2020-08-30 17:06:34.5340,1598799994.534340,0.036783073,0.048869107,-0.032086805,-0.948139966,0.020630077,-0.323742479
2020-08-30 17:06:34.5640,1598799994.564140,0.046858612,0.050943885,-0.039391398,-0.958027601,0.030410931,-0.336086869
2020-08-30 17:06:34.5940,1598799994.594010,0.077586964,0.093808964,-0.019730268,-0.96709162,0.034347739,-0.346783102
2020-08-30 17:06:34.6240,1598799994.623970,0.105407938,0.120342985,0.002203507,-0.953313172,0.024048066,-0.357540429
2020-08-30 17:06:34.6540,1598799994.653950,0.104498476,0.149042308,0.013966518,-0.959600031,0.028503656,-0.354274869
2020-08-30 17:06:34.6840,1598799994.683850,0.108476706,0.175166979,0.011540283,-0.951757193,0.030380445,-0.356166869
2020-08-30 17:06:34.7140,1598799994.714000,0.129535109,0.186651379,0.010117718,-0.935476184,0.041366769,-0.350581974
2020-08-30 17:06:34.7440,1598799994.743640,0.069419578,0.180036008,0.014965089,-0.924246013,0.031646961,-0.349406958
2020-08-30 17:06:34.7740,1598799994.773730,-0.006512468,0.19165346,0.005886697,-0.93018204,0.042007662,-0.352000684
2020-08-30 17:06:34.8040,1598799994.803540,0.023044359,0.17277734,-0.006885975,-0.918982446,0.05728174,-0.349040329
2020-08-30 17:06:34.8330,1598799994.833480,0.042184763,0.15480943,-0.017532837,-0.922049642,0.053467035,-0.352000415
2020-08-30 17:06:34.8630,1598799994.863350,0.007853688,0.146971613,-0.015972814,-0.918875992,0.046051268,-0.355952382
2020-08-30 17:06:34.8940,1598799994.893600,-0.012569828,0.127537012,-0.005732656,-0.91661793,0.047882339,-0.359980524
2020-08-30 17:06:34.9240,1598799994.923940,-0.030452687,0.125235826,0.017339811,-0.923896551,0.039551042,-0.357477963
2020-08-30 17:06:34.9530,1598799994.953350,-0.021532163,0.111948833,0.018564276,-0.921135128,0.040039364,-0.354807407
2020-08-30 17:06:34.9830,1598799994.983210,-0.018004276,0.101691216,0.032044932,-0.926872909,0.037781078,-0.359567881
2020-08-30 17:06:35.0180,1598799995.018270,-0.032470301,0.097501934,0.056735881,-0.933343053,0.040359844,-0.371377885
2020-08-30 17:06:35.0430,1598799995.043300,-0.016619697,0.107343912,0.086240053,-0.934670746,0.027695064,-0.38480553
2020-08-30 17:06:35.0730,1598799995.073120,-0.001473235,0.118900254,0.084574133,-0.930871367,0.007400937,-0.399392933
2020-08-30 17:06:35.1030,1598799995.102750,0.001667431,0.120839313,0.082580224,-0.928338587,0.001068555,-0.410333335
2020-08-30 17:06:35.1330,1598799995.133290,0.058320321,0.120972857,0.072723761,-0.928598046,0.01718184,-0.413827628
2020-08-30 17:06:35.1630,1598799995.163020,0.112054929,0.138286024,0.064626634,-0.918893635,0.033493534,-0.422387719
2020-08-30 17:06:35.1930,1598799995.193130,0.07862746,0.165394083,0.068614759,-0.91893959,0.028580181,-0.424416989
2020-08-30 17:06:35.2230,1598799995.222830,0.132219568,0.174733371,0.057199933,-0.911813974,0.042908177,-0.427789062
2020-08-30 17:06:35.2530,1598799995.253210,0.135359704,0.182427928,0.020764103,-0.905664563,0.028412316,-0.424645901
2020-08-30 17:06:35.2830,1598799995.282840,0.131355643,0.177786648,0.0136376,-0.905954599,0.040054765,-0.43637982
2020-08-30 17:06:35.3130,1598799995.312770,0.069121838,0.203434169,0.018454287,-0.927530527,0.041031308,-0.438958555
2020-08-30 17:06:35.3430,1598799995.342670,0.039175924,0.215059578,0.022802964,-0.909891248,0.045731056,-0.439736962
2020-08-30 17:06:35.3730,1598799995.372630,0.063048765,0.202693015,0.03260842,-0.892175794,0.041382272,-0.433175683
2020-08-30 17:06:35.4030,1598799995.402750,0.10335438,0.179667637,0.028189339,-0.890405595,0.044815499,-0.432245106
2020-08-30 17:06:35.4320,1598799995.432480,0.117328785,0.176493734,0.034681842,-0.895120323,0.04486125,-0.445047408
2020-08-30 17:06:35.4620,1598799995.462440,0.118471012,0.167562783,0.027423032,-0.884072959,0.043304823,-0.448892653
2020-08-30 17:06:35.4920,1598799995.492420,0.154742986,0.144093856,0.029266244,-0.882165432,0.053146768,-0.448709697
2020-08-30 17:06:35.5220,1598799995.522390,0.190080479,0.135121301,0.031406403,-0.893487453,0.051849741,-0.472513407
2020-08-30 17:06:35.5520,1598799995.552220,0.144277573,0.153730854,0.025979031,-0.891366482,0.029755004,-0.494547129
2020-08-30 17:06:35.5820,1598799995.582160,0.22750695,0.156657934,0.01653295,-0.892770171,0.036667235,-0.510462165
2020-08-30 17:06:35.6120,1598799995.612090,0.268229067,0.200869024,0.03642001,-0.905068517,0.042663876,-0.539072514
2020-08-30 17:06:35.6420,1598799995.642280,0.283030391,0.272180229,0.0899987,-0.905557156,0.045700395,-0.566644967
2020-08-30 17:06:35.6720,1598799995.672050,0.315651983,0.366260439,0.141267464,-0.912286282,0.037628477,-0.559854925
2020-08-30 17:06:35.7020,1598799995.701950,0.382462174,0.394458234,0.185293093,-0.896432221,0.030441577,-0.543238282
2020-08-30 17:06:35.7320,1598799995.731720,0.354850262,0.393135905,0.207258508,-0.878731728,-0.000716893,-0.546290278
2020-08-30 17:06:35.7620,1598799995.761610,0.343148321,0.431059301,0.233818278,-0.883476734,-0.006149011,-0.592555225
2020-08-30 17:06:35.7920,1598799995.792040,0.416356504,0.598832965,0.269139081,-0.957985222,0.026138576,-0.661326766
2020-08-30 17:06:35.8220,1598799995.821650,0.467483044,0.769520938,0.348420173,-0.968605101,0.002609532,-0.693446815
2020-08-30 17:06:35.8520,1598799995.851750,0.478551418,0.908619165,0.413878202,-0.989601314,-0.041274715,-0.720317602
2020-08-30 17:06:35.8820,1598799995.881830,0.610971272,1.052144051,0.457338661,-1.010383368,-0.046569519,-0.759304106
2020-08-30 17:06:35.9120,1598799995.911530,0.654252708,1.293069959,0.480032891,-1.08661592,-0.035751058,-0.77610445
2020-08-30 17:06:35.9420,1598799995.941860,0.732574403,1.472640395,0.453543276,-1.017310262,-0.050994596,-0.794598401
2020-08-30 17:06:35.9720,1598799995.971770,0.746587694,1.683212876,0.441228092,-1.050955594,-0.025329364,-0.823987126
2020-08-30 17:06:36.0020,1598799996.001660,0.789137304,1.887656569,0.40469557,-1.005468965,-0.004516434,-0.813916504
2020-08-30 17:06:36.0430,1598799996.042790,0.861220002,2.006855249,0.338449925,-0.935278237,-0.024810727,-0.798658073
2020-08-30 17:06:36.0610,1598799996.061110,0.986560583,2.077217102,0.265478075,-0.892797351,-0.000595186,-0.783308148
2020-08-30 17:06:36.0920,1598799996.091510,0.913747132,2.164768696,0.200075835,-0.871190548,-0.021042146,-0.769453406
2020-08-30 17:06:36.1220,1598799996.121580,0.980147183,2.100479841,0.11317239,-0.740422159,-0.022537716,-0.770018339
2020-08-30 17:06:36.1510,1598799996.151480,1.109735012,2.120263577,0.060225554,-0.740375757,-0.01953198,-0.769133568
2020-08-30 17:06:36.1810,1598799996.181280,1.168934107,2.088744879,-0.041680537,-0.662555307,-0.03473001,-0.788054705
2020-08-30 17:06:36.2110,1598799996.211370,1.179898381,2.08849287,-0.116969772,-0.615069389,-0.082200393,-0.804046094
2020-08-30 17:06:36.2410,1598799996.240900,1.29664731,2.017907143,-0.226267084,-0.538195074,-0.081483573,-0.774688303
2020-08-30 17:06:36.2710,1598799996.271120,1.282800794,1.930044174,-0.31191346,-0.476274297,-0.063234344,-0.771377206
2020-08-30 17:06:36.3010,1598799996.300770,1.318513751,1.819612503,-0.427652121,-0.394990236,-0.120302618,-0.778030038
2020-08-30 17:06:36.3310,1598799996.330840,1.243950367,1.654801369,-0.529010415,-0.293091558,-0.224810362,-0.717803538
2020-08-30 17:06:36.3610,1598799996.360730,1.197751164,1.53005898,-0.662974775,-0.237137131,-0.19255358,-0.726928234
2020-08-30 17:06:36.3910,1598799996.390900,1.191696405,1.359863281,-0.710651159,-0.15130602,-0.21948567,-0.722854018
2020-08-30 17:06:36.4210,1598799996.420690,1.371069908,1.153223753,-0.747603416,-0.071822584,-0.228946447,-0.735625446
2020-08-30 17:06:36.4510,1598799996.450610,1.380885243,1.008093834,-0.752599537,-0.035750479,-0.293506682,-0.776930809
2020-08-30 17:06:36.4800,1598799996.480420,1.245030522,0.961337864,-0.787433088,0.01356627,-0.390766501,-0.799269497
2020-08-30 17:06:36.6010,1598799996.600530,1.243932724,0.960607052,-0.854186594,0.070497155,-0.366383255,-0.780134737
2020-08-30 17:06:36.6010,1598799996.600640,1.595399976,0.961371124,-0.873777092,0.13757512,-0.365971565,-0.73930198
2020-08-30 17:06:36.6010,1598799996.600670,1.605559945,0.997909784,-0.963351011,0.206606224,-0.457310975,-0.715085983
2020-08-30 17:06:36.6010,1598799996.600700,1.157155752,1.023697615,-1.048149347,0.236742675,-0.518712521,-0.679715872
2020-08-30 17:06:36.6310,1598799996.630700,0.937788546,1.020501614,-1.080137014,0.324938893,-0.558156669,-0.60137701
2020-08-30 17:06:36.6600,1598799996.660190,1.009506702,1.002475023,-1.19096446,0.406329602,-0.541982293,-0.605786562
2020-08-30 17:06:36.6900,1598799996.689880,0.814217091,0.999719679,-1.279045343,0.487430543,-0.55522716,-0.586773813
2020-08-30 17:06:36.7200,1598799996.720000,0.413653642,1.100192666,-1.38470757,0.559788227,-0.584722519,-0.523495257
2020-08-30 17:06:36.7500,1598799996.750220,0.905345678,1.08554852,-1.444069624,0.66658479,-0.391072929,-0.479473472
2020-08-30 17:06:36.7800,1598799996.779680,1.619983912,1.277562618,-1.532081842,0.766896486,-0.288167655,-0.508327484
2020-08-30 17:06:36.8100,1598799996.809950,1.475943089,1.574120641,-1.449656963,0.880773425,-0.453557849,-0.549952865
2020-08-30 17:06:36.8400,1598799996.839530,1.15755558,2.05265379,-1.169184685,0.991949499,-0.467000782,-0.448054105
2020-08-30 17:06:36.8700,1598799996.869650,1.3926754,2.376534224,-0.858354151,1.07721585,-0.348043144,-0.292978525
2020-08-30 17:06:36.9000,1598799996.899610,1.073497057,2.696666718,-0.598003924,1.055976152,-0.445470572,-0.13195172
2020-08-30 17:06:36.9300,1598799996.929620,0.797339022,3.160313845,-0.330646843,1.0107494,-0.418752372,-0.016762421
2020-08-30 17:06:36.9600,1598799996.959600,0.536462665,3.686771154,-0.14737992,1.000907838,-0.437001944,0.107033208
2020-08-30 17:06:36.9900,1598799996.989580,0.502505541,4.300626755,0.005248357,1.032249272,-0.42911303,0.210091669
2020-08-30 17:06:37.0200,1598799997.019620,0.345981658,4.922281742,0.175959736,1.074607611,-0.424947381,0.331079863
2020-08-30 17:06:37.0490,1598799997.049440,0.498468429,5.724250317,0.148280427,0.933387518,-0.404256582,0.465068758
2020-08-30 17:06:37.0790,1598799997.079260,0.411401957,6.349351406,-0.146307588,0.919699669,-0.410939813,0.674206674
2020-08-30 17:06:37.1100,1598799997.110090,0.034732975,7.17178297,-0.480492264,0.687505841,-0.418126464,0.8592816
2020-08-30 17:06:37.1390,1598799997.139080,-0.580077708,7.930737495,-1.030398846,0.442586124,-0.358174801,1.140792668
2020-08-30 17:06:37.1690,1598799997.169130,-1.477017522,8.314446449,-2.300835848,0.085132301,-0.129903197,1.546524227
2020-08-30 17:06:37.1990,1598799997.198920,-2.55489254,7.695579052,-4.358564854,-0.29354617,-0.226064146,2.226410449
2020-08-30 17:06:37.2290,1598799997.228900,-4.640473843,6.570724487,-8.263831139,-1.130506381,-1.066167772,3.080735266
2020-08-30 17:06:37.2590,1598799997.258910,-5.465530396,4.395296097,-13.5798111,-3.512234986,-1.654638469,4.372268856
2020-08-30 17:06:37.2890,1598799997.288720,-4.973702431,-3.911118031,-20.00223351,-4.878031254,-0.532933354,3.588515699
2020-08-30 17:06:37.3190,1598799997.318830,2.583545685,-11.93762302,-20.45010567,-7.737113237,0.702422261,2.452267796
2020-08-30 17:06:37.3480,1598799997.348490,9.118630409,-21.72868729,-14.77409744,-8.415260017,4.490848482,-1.303825349
2020-08-30 17:06:37.3790,1598799997.378910,19.52482414,-22.91477966,-6.637630463,-7.947413981,4.825474083,-0.35952574
2020-08-30 17:06:37.4080,1598799997.408400,20.45485306,-10.79265881,2.918051243,-5.091599315,3.300138265,5.233810902
2020-08-30 17:06:37.4400,1598799997.440130,-6.396453381,-4.190693378,5.616940022,-5.52861312,-4.165575653,-1.131987631
2020-08-30 17:06:37.4700,1598799997.470360,0.430763662,-7.177872181,4.596335888,-2.747304082,-0.262406319,-0.339445412
2020-08-30 17:06:37.5000,1598799997.499600,3.441063643,-4.921610832,4.415455341,-4.528051972,-0.48622223,-0.909802675
2020-08-30 17:06:37.5290,1598799997.528610,0.092262581,-3.162516356,4.241053104,-4.42743659,-0.789749499,-1.845425069
2020-08-30 17:06:37.5610,1598799997.560510,-1.387078881,-2.368460178,3.399239063,-2.958564818,-0.628234118,-2.074916601
2020-08-30 17:06:37.5880,1598799997.588240,-0.851629078,-1.717414618,2.716543198,-2.41266644,-0.385160789,-1.732295215
2020-08-30 17:06:37.6180,1598799997.618150,0.462410271,-1.684619069,2.183621168,-1.968803704,0.04159759,-1.371012539
2020-08-30 17:06:37.6480,1598799997.647980,0.218734488,-1.071639776,1.804713368,-1.83152014,-0.283887237,-1.085703522
2020-08-30 17:06:37.6820,1598799997.681530,-0.228473097,-0.719507933,1.479354978,-1.479698002,-0.284466803,-0.891535401
2020-08-30 17:06:37.7080,1598799997.707860,0.131942347,-0.627019286,1.289042354,-1.227195382,-0.201840162,-0.679087162
2020-08-30 17:06:37.7380,1598799997.738360,0.255955637,-0.416023731,1.202843785,-1.156776071,-0.248898,-0.592539132
2020-08-30 17:06:37.7680,1598799997.768480,0.044648189,-0.256255329,1.157469749,-1.081321478,-0.237926632,-0.580637157
2020-08-30 17:06:37.7990,1598799997.799220,0.170256436,-0.013003672,1.058813691,-1.026237071,-0.020549655,-0.537393659
2020-08-30 17:06:37.8280,1598799997.828340,-0.123719253,0.163339987,0.692973673,-0.896292865,0.056568265,-0.526728153
2020-08-30 17:06:37.8580,1598799997.858340,-0.161410972,0.323729962,0.275000691,-0.787146986,0.32071346,-0.509409159
2020-08-30 17:06:37.8880,1598799997.888040,-0.200995669,0.436127752,0.05847089,-0.784400463,0.493107438,-0.512064099
2020-08-30 17:06:37.9180,1598799997.918190,-0.356422812,0.508753896,-0.000687049,-0.778342545,0.488117725,-0.445276469
2020-08-30 17:06:37.9840,1598799997.983920,-0.440195471,0.541887522,-0.107994176,-0.762564898,0.470951676,-0.427606881
2020-08-30 17:06:37.9840,1598799997.984010,-0.570115089,0.586852372,-0.247624293,-0.778693497,0.410084397,-0.428980172
2020-08-30 17:06:38.0080,1598799998.007510,-0.625655293,0.655438662,-0.393471092,-0.821540236,0.449238479,-0.402139962
2020-08-30 17:06:38.0380,1598799998.038140,-0.6620453,0.754632771,-0.416271865,-0.832313061,0.493336499,-0.368250132
2020-08-30 17:06:38.0670,1598799998.067330,-0.84383291,0.74785322,-0.451111883,-0.796165347,0.482182533,-0.35593605
2020-08-30 17:06:38.0970,1598799998.097490,-0.836607516,0.703914404,-0.470951527,-0.777778625,0.50337702,-0.334085464
2020-08-30 17:06:38.1270,1598799998.126930,-0.767349601,0.65657866,-0.528726876,-0.760124266,0.511250556,-0.339349747
2020-08-30 17:06:38.1570,1598799998.156770,-0.772764325,0.63115263,-0.590157747,-0.753318608,0.487065226,-0.347589582
2020-08-30 17:06:38.1870,1598799998.186770,-0.782369018,0.611442506,-0.649951458,-0.750083685,0.516041607,-0.378626138
2020-08-30 17:06:38.2170,1598799998.216990,-0.887358308,0.493524909,-0.667767227,-0.70955652,0.477619976,-0.389246136
2020-08-30 17:06:38.2470,1598799998.247420,-0.853198707,0.421255231,-0.655637443,-0.711464167,0.513615608,-0.374872148
2020-08-30 17:06:38.2770,1598799998.276750,-0.506894052,0.357458383,-0.707262158,-0.698280752,0.562062234,-0.386560291
2020-08-30 17:06:38.3070,1598799998.306760,-0.310307235,0.290317267,-0.658297122,-0.709129393,0.518330276,-0.43708238
2020-08-30 17:06:38.3370,1598799998.336710,-0.238368347,0.241780937,-0.65637821,-0.743003964,0.471272022,-0.447809339
2020-08-30 17:06:38.3670,1598799998.366970,-0.118751392,0.2589719,-0.674624383,-0.765952945,0.481907129,-0.437418371
2020-08-30 17:06:38.3970,1598799998.396800,0.111194462,0.240995973,-0.691497326,-0.792198241,0.471485376,-0.436533302
2020-08-30 17:06:38.4270,1598799998.426680,0.044717431,0.235552788,-0.689880848,-0.817024291,0.398685485,-0.45430994
2020-08-30 17:06:38.4570,1598799998.456570,-0.386188954,0.203405499,-0.70995301,-0.818733096,0.325778842,-0.456400514
2020-08-30 17:06:38.4870,1598799998.486700,-0.583301187,0.190298721,-0.754831851,-0.837303162,0.361789495,-0.48455295
2020-08-30 17:06:38.5160,1598799998.516320,-0.640146911,0.184026048,-0.75816226,-0.842033148,0.366382182,-0.468378752
2020-08-30 17:06:38.5460,1598799998.546250,-0.524656236,0.183348,-0.756492734,-0.850639164,0.399096906,-0.473780364
2020-08-30 17:06:38.5760,1598799998.576190,-0.548939764,0.187421024,-0.710313439,-0.859305978,0.388247728,-0.476817012
2020-08-30 17:06:38.6070,1598799998.607380,-0.554958224,0.218003049,-0.646823585,-0.862861156,0.398928791,-0.468592644
2020-08-30 17:06:38.6370,1598799998.636540,-0.40591687,0.218492448,-0.616268396,-0.831305861,0.391482323,-0.452036947
2020-08-30 17:06:38.6660,1598799998.666080,-0.473294318,0.213234842,-0.590751469,-0.830603957,0.337069392,-0.439540029
2020-08-30 17:06:38.6960,1598799998.696160,-0.604062915,0.237705767,-0.525627077,-0.833747089,0.323550045,-0.423106432
2020-08-30 17:06:38.7260,1598799998.725790,-0.484867334,0.222806096,-0.479275852,-0.817618728,0.366289914,-0.407527089
2020-08-30 17:06:38.7560,1598799998.755570,-0.41315639,0.137966096,-0.424797535,-0.84152925,0.334276915,-0.395076007
2020-08-30 17:06:38.7860,1598799998.785510,-0.293616146,0.062874049,-0.393812895,-0.855170846,0.348727018,-0.402308434
2020-08-30 17:06:38.8150,1598799998.815390,-0.284397364,0.009288761,-0.362058014,-0.871848524,0.332720459,-0.454478353
2020-08-30 17:06:38.8450,1598799998.845420,-0.323570848,-0.026377134,-0.269551188,-0.867835045,0.289598942,-0.471400559
2020-08-30 17:06:38.8760,1598799998.875910,0.058713675,-0.022589721,-0.233182475,-0.873053789,0.332308352,-0.48513332
2020-08-30 17:06:38.9060,1598799998.905610,0.605221272,0.030470744,-0.124858893,-0.881598413,0.290880561,-0.506007642
2020-08-30 17:06:38.9350,1598799998.935440,0.622676134,0.12951991,-0.054802615,-0.890708029,0.226244301,-0.524852157
2020-08-30 17:06:38.9650,1598799998.965420,1.260324836,0.219709367,0.076434046,-0.893637419,0.302919567,-0.56498313
2020-08-30 17:06:38.9950,1598799998.995280,1.60466671,0.245808482,0.067270279,-0.88242209,0.24701114,-0.566417634
2020-08-30 17:06:39.0250,1598799999.025430,0.871048391,0.247282878,0.055061795,-0.893149078,0.123826891,-0.465099186
2020-08-30 17:06:39.0550,1598799999.055290,0.555844128,0.253729641,-0.039791197,-0.846976101,0.145494327,-0.524700105
2020-08-30 17:06:39.0850,1598799999.085060,0.012735528,0.242924541,-0.163142279,-0.841925442,0.035661504,-0.506221831
2020-08-30 17:06:39.1150,1598799999.114990,-0.123174101,0.24733901,-0.215793923,-0.875769556,0.151368886,-0.498104036
2020-08-30 17:06:39.1450,1598799999.145200,0.070485912,0.22680372,-0.205657005,-0.876074433,0.237428352,-0.530834377
2020-08-30 17:06:39.1750,1598799999.175140,0.126964897,0.236421198,-0.090282097,-0.899999976,0.212541193,-0.52537185
